File,sbj,Block_nr,Trial_nr,ItemID,word_1,word_2,word_3,picture,filename,marker,condition,constraint,wordorder,presentation_RT,accuracy,accuracy_comments,manual_RT
Exp_EEG2.txt,2,1,1,177,pijp,lauwerkrans,farao,clown,clown.png,7,unstructured,uc,NO,859,1,,0.8
Exp_EEG2.txt,2,1,2,191,gangpad,zoomlens,bladmuziek,octopus,octopus.png,7,unstructured,uc,NO,0,1,,0.693333333
Exp_EEG2.txt,2,1,3,157,groente,knoflook,sjalot,ui,onion.png,3,unstructured,c,NO,600,1,,0.528862511
Exp_EEG2.txt,2,1,4,59,sloeg,kakkerlak,met,bezem,broom01.png,9,structured,uc,VOP,0,1,,0.68
Exp_EEG2.txt,2,1,5,160,piloot,helikopter,stewardess,vliegtuig,plane.png,3,unstructured,c,NO,0,1,,0.63160059
Exp_EEG2.txt,2,1,6,169,salade,kassa,amfibie,baard,beard.png,7,unstructured,uc,NO,0,1,,1.093333333
Exp_EEG2.txt,2,1,7,72,doorzocht,vak,voor,helm,helmet.png,9,structured,uc,VOP,0,1,,0.688991874
Exp_EEG2.txt,2,1,8,149,winter,nek,wol,sjaal,scarf.png,3,unstructured,c,NO,850,1,,0.653333333
Exp_EEG2.txt,2,1,9,57,doos,staat,bij,bed,bed.png,9,structured,uc,SVP,850,1,,0.771882368
Exp_EEG2.txt,2,1,10,154,vloer,decoratie,franjes,tapijt,carpet.png,3,unstructured,c,NO,1000,1,,0.709714497
Exp_EEG2.txt,2,1,11,10,opa,leest,met,bril,glasses01b.png,1,structured,c,SVP,0,1,,0.637806523
Exp_EEG2.txt,2,1,12,94,haatte,kleur,van,raam,window01.png,9,structured,uc,VOP,0,1,,0.80390824
Exp_EEG2.txt,2,1,13,84,wetenschapper,sprak,over,maan,moon.png,9,structured,uc,SVP,0,1,,1.054463596
Exp_EEG2.txt,2,1,14,79,verborg,pen,onder,krant,newspaper.png,9,structured,uc,VOP,0,1,,0.863953044
Exp_EEG2.txt,2,1,15,141,gieter,kunstmest,grond,plantje,plant02b.png,3,unstructured,c,NO,800,1,,0.733333333
Exp_EEG2.txt,2,1,16,90,kok,wijst,naar,pan,pan.png,9,structured,uc,SVP,680,1,,0.653333333
Exp_EEG2.txt,2,1,17,137,dierentuin,zebra,slurf,olifant,elephant.png,3,unstructured,c,NO,0,1,,0.530746386
Exp_EEG2.txt,2,1,18,102,klanten,klaagden,over,tent,tent.png,9,structured,uc,SVP,870,1,,0.826666667
Exp_EEG2.txt,2,1,19,53,konijn,knaagt,op,wortel,carrot02.png,1,structured,c,SVP,0,1,,0.706666667
Exp_EEG2.txt,2,1,20,113,bestuurder,snelweg,benzine,auto,car.png,3,unstructured,c,NO,0,1,,0.813939284
Exp_EEG2.txt,2,1,21,184,vloer,zebra,navel,kerstman,santa.png,7,unstructured,uc,NO,820,1,,0.788837241
Exp_EEG2.txt,2,1,22,163,wastafel,toiletpapier,ontstopper,wc,wc2.png,3,unstructured,c,NO,1170,1,,1.026666667
Exp_EEG2.txt,2,2,23,23,hamster,breekt,uit,kooi,cage.png,1,structured,c,SVP,740,1,,0.688991874
Exp_EEG2.txt,2,2,24,179,troon,beschuit,helikopter,diepvries,freezer01.png,7,unstructured,uc,NO,0,2,freezer,1.043160347
Exp_EEG2.txt,2,2,25,144,ruimtestation,astronaut,lancering,raket,rocket.png,3,unstructured,c,NO,0,1,,0.551469009
Exp_EEG2.txt,2,2,26,85,vroegen,gastheer,om,mes,knife01.png,9,structured,uc,VOP,0,1,,0.651314377
Exp_EEG2.txt,2,2,27,69,dolfijn,luisterde,naar,fluitje,whistle.png,9,structured,uc,SVP,960,1,,0.893333333
Exp_EEG2.txt,2,2,28,201,snelweg,lontje,groente,schilderij,schilderij.png,7,unstructured,uc,NO,950,1,,0.813333333
Exp_EEG2.txt,2,2,29,12,zwerver,leeft,onder,brug,bridge.png,1,structured,c,SVP,0,1,,0.626666667
Exp_EEG2.txt,2,2,30,112,heelal,ufo,invasie,alien,alien.png,3,unstructured,c,NO,0,1,,0.47799789
Exp_EEG2.txt,2,2,31,136,inktvis,weekdier,tentakel,octopus,octopus.png,3,unstructured,c,NO,0,1,,0.607985255
Exp_EEG2.txt,2,2,32,64,vrienden,gingen,naar,bos,forest.png,9,structured,uc,SVP,0,1,,0.773333333
Exp_EEG2.txt,2,2,33,204,partij,benen,visum,sjaal,scarf.png,7,unstructured,uc,NO,0,1,,0.698411248
Exp_EEG2.txt,2,2,34,61,greep,handvat,van,bijl,axe.png,9,structured,uc,VOP,0,1,,0.72
Exp_EEG2.txt,2,2,35,38,telde,stukjes,van,puzzel,puzzle.png,1,structured,c,VOP,0,1,,1.288064079
Exp_EEG2.txt,2,2,36,21,hangt,jas,aan,kapstok,coatrack.png,1,structured,c,VOP,0,1,,0.664501501
Exp_EEG2.txt,2,2,37,133,prins,hertog,troon,koning,king.png,3,unstructured,c,NO,0,1,,0.971573103
Exp_EEG2.txt,2,2,38,11,strooit,hagelslag,op,brood,brood.png,1,structured,c,VOP,0,1,,0.626824004
Exp_EEG2.txt,2,2,39,58,hield,presentatie,over,berg,berg.png,9,structured,uc,VOP,1010,1,,0.88
Exp_EEG2.txt,2,2,40,139,farao,egypte,graf,piramide,pyramid.png,3,unstructured,c,NO,1200,1,,1.133333333
Exp_EEG2.txt,2,2,41,156,zolder,leuning,trede,trap,stairs.png,3,unstructured,c,NO,0,1,,0.698411248
Exp_EEG2.txt,2,2,42,16,slaat,spijker,met,hamer,hammer02b.png,1,structured,c,VOP,810,1,,0.73797262
Exp_EEG2.txt,2,2,43,115,flesopener,vaasje,gerst,bier,beer.png,3,unstructured,c,NO,0,1,,0.864192236
Exp_EEG2.txt,2,2,44,180,maaier,graf,barak,ei,egg.png,7,unstructured,uc,NO,770,1,,0.700295123
Exp_EEG2.txt,2,3,45,207,hertog,inktvis,wattenstaafje,supermarkt,supermarket.png,7,unstructured,uc,NO,0,1,,1.186334836
Exp_EEG2.txt,2,3,46,29,astronaut,landde,op,maan,moon.png,1,structured,c,SVP,0,1,,0.628707879
Exp_EEG2.txt,2,3,47,80,raakte,oog,met,kurk,cork02.png,9,structured,uc,VOP,1090,1,,1.016786099
Exp_EEG2.txt,2,3,48,81,vond,sok,in,laars,boot02b.png,9,structured,uc,VOP,830,1,,0.702178998
Exp_EEG2.txt,2,3,49,67,opa,las,over,brug,bridge.png,9,structured,uc,SVP,0,1,,0.683340249
Exp_EEG2.txt,2,3,50,122,circus,feestneus,ballon,clown,clown.png,3,unstructured,c,NO,0,1,,0.711598372
Exp_EEG2.txt,2,3,51,103,brak,pols,in,tuin,garden.png,9,structured,uc,VOP,830,1,,0.773333333
Exp_EEG2.txt,2,3,52,100,ontmoetten,kennissen,op,strand,beach.png,9,structured,uc,VOP,0,1,,0.890566484
Exp_EEG2.txt,2,3,53,190,bloem,rundvlees,tekstbericht,naald,needle.png,7,unstructured,uc,NO,0,0, ,1.308786702
Exp_EEG2.txt,2,3,54,87,vlek,lijkt,op,muis,mouse.png,9,structured,uc,SVP,0,1,,0.769998493
Exp_EEG2.txt,2,3,55,148,aansteker,pijp,asbak,sigaret,cigarrette.png,3,unstructured,c,NO,0,1,,0.826514739
Exp_EEG2.txt,2,3,56,220,tijd,ambassadeur,winter,ziekenhuis,ziekenhuis.png,7,unstructured,uc,NO,0,1,,0.724785496
Exp_EEG2.txt,2,3,57,34,vogels,broeden,in,nest,nest.png,1,structured,c,SVP,0,1,,0.796372741
Exp_EEG2.txt,2,3,58,217,radiateur,sok,tribune,vulkaan,volcano.png,7,unstructured,uc,NO,0,1,,0.74550812
Exp_EEG2.txt,2,3,59,119,benen,achterzak,gulp,broek,pants2.png,3,unstructured,c,NO,0,1,,0.589146507
Exp_EEG2.txt,2,3,60,1,jongens,spelen,met,bal,ball02.png,1,structured,c,SVP,1040,1,,0.956502104
Exp_EEG2.txt,2,3,61,35,kok,roert,in,pan,pan.png,1,structured,c,SVP,0,1,,0.662544927
Exp_EEG2.txt,2,3,62,20,kind,likt,aan,ijsje,ijsje.png,1,structured,c,SVP,0,1,,0.792604991
Exp_EEG2.txt,2,3,63,209,piloot,kunstmest,strijkstok,tapijt,carpet.png,7,unstructured,uc,NO,0,1,,0.728553246
Exp_EEG2.txt,2,3,64,140,schietschijf,kogel,holster,pistool,gun.png,3,unstructured,c,NO,0,1,,0.754927494
Exp_EEG2.txt,2,3,65,39,hing,gordijn,voor,raam,window01.png,1,structured,c,VOP,0,1,,0.747391995
Exp_EEG2.txt,2,3,66,99,dier,beweegt,met,staart,tail.png,9,structured,uc,SVP,960,1,,0.785069492
Exp_EEG2.txt,2,4,67,170,waterlelie,sjalot,zolen,bier,beer.png,7,unstructured,uc,NO,860,1,,0.72
Exp_EEG2.txt,2,4,68,18,visser,trekt,aan,hengel,fishingrod.png,1,structured,c,SVP,570,1,,0.533333333
Exp_EEG2.txt,2,4,69,132,kleding,vakantie,bagage,koffer,suitcase.png,3,unstructured,c,NO,710,1,,0.67580475
Exp_EEG2.txt,2,4,70,105,vergat,sleutels,in,vaas,vase01.png,9,structured,uc,VOP,700,1,,0.641895003
Exp_EEG2.txt,2,4,71,48,bouwde,hek,rond,tuin,garden.png,1,structured,c,VOP,680,1,,0.636243378
Exp_EEG2.txt,2,4,72,124,koelkast,ijsblokje,apparaat,diepvries,freezer01.png,3,unstructured,c,NO,840,2,freezer,0.8
Exp_EEG2.txt,2,4,73,65,onderzoeker,gooide,met,bril,glasses01b.png,9,structured,uc,SVP,790,1,,0.600449756
Exp_EEG2.txt,2,4,74,32,kat,jaagt,op,muis,mouse.png,1,structured,c,SVP,680,1,,0.626666667
Exp_EEG2.txt,2,4,75,203,passagier,koelkast,veters,sigaret,cigarrette.png,7,unstructured,uc,NO,680,1,,0.613333333
Exp_EEG2.txt,2,4,76,165,dokter,verpleegster,ambulance,ziekenhuis,ziekenhuis.png,3,unstructured,c,NO,640,1,,0.427133269
Exp_EEG2.txt,2,4,77,188,jurk,popcorn,boer,koning,king.png,7,unstructured,uc,NO,740,1,,0.706666667
Exp_EEG2.txt,2,4,78,40,deed,aanzoek,met,ring,ring01.png,1,structured,c,VOP,690,1,,0.581611007
Exp_EEG2.txt,2,4,79,174,straat,handpalm,reptiel,broek,pants2.png,7,unstructured,uc,NO,0,1,,0.586666667
Exp_EEG2.txt,2,4,80,198,dief,klavier,gieter,potlood,pencil01.png,7,unstructured,uc,NO,800,1,,0.753043619
Exp_EEG2.txt,2,4,81,4,veegt,vloer,met,bezem,broom01.png,1,structured,c,VOP,650,1,,0.573333333
Exp_EEG2.txt,2,4,82,199,decoratie,schoorsteen,bestuurder,raket,rocket.png,7,unstructured,uc,NO,730,1,,0.693333333
Exp_EEG2.txt,2,4,83,211,badge,komkommer,weide,trap,stairs.png,7,unstructured,uc,NO,730,1,,0.611753005
Exp_EEG2.txt,2,4,84,212,kleermaker,landschap,gum,ui,onion.png,7,unstructured,uc,NO,690,1,,0.60610138
Exp_EEG2.txt,2,4,85,78,jongen ,stond,voor,kooi,cage.png,9,structured,uc,SVP,820,1,,0.786666667
Exp_EEG2.txt,2,4,86,30,sneed,vlees,met,mes,knife01.png,1,structured,c,VOP,660,1,,0.56
Exp_EEG2.txt,2,4,87,131,kalf,boer,rundvlees,koe,cow.png,3,unstructured,c,NO,780,1,,0.72
Exp_EEG2.txt,2,4,88,173,vijver,piloot,franjes,boterham,boterham.png,7,unstructured,uc,NO,760,1,,0.733333333
Exp_EEG2.txt,2,5,89,153,oven,bloem,glazuur,taart,cake.png,3,unstructured,c,NO,720,1,,0.687107999
Exp_EEG2.txt,2,5,90,41,man,knipte,met,schaar,scissors08.png,1,structured,c,SVP,700,1,,0.504372138
Exp_EEG2.txt,2,5,91,181,leuning,slurf,vlam,fiets,bike.png,7,unstructured,uc,NO,660,1,,0.559004509
Exp_EEG2.txt,2,5,92,213,nectar,snor,rodeo,vinger,finger.png,7,unstructured,uc,NO,710,1,,0.664501501
Exp_EEG2.txt,2,5,93,130,waterlelie,vijver,amfibie,kikker,frog.png,3,unstructured,c,NO,700,1,,0.653333333
Exp_EEG2.txt,2,5,94,55,aarde,draait,om,zon,sun.png,1,structured,c,SVP,710,1,,0.61363688
Exp_EEG2.txt,2,5,95,147,sok,zolen,veters,schoen,shoe.png,3,unstructured,c,NO,0,1,,0.570307758
Exp_EEG2.txt,2,5,96,200,trouwerij,verkeer,luier,schaap,sheep.png,7,unstructured,uc,NO,790,1,,0.600449756
Exp_EEG2.txt,2,5,97,13,vreemdeling,klopt,op,deur,deur.png,1,structured,c,SVP,540,1,,0.483649515
Exp_EEG2.txt,2,5,98,95,bewaarde,bonnetje,van,ring,ring01.png,9,structured,uc,VOP,710,1,,0.613333333
Exp_EEG2.txt,2,5,99,27,at,soep,met,lepel,spoon02b.png,1,structured,c,VOP,780,1,,0.746666667
Exp_EEG2.txt,2,5,100,194,herder,ticket,cadeau,piramide,pyramid.png,7,unstructured,uc,NO,760,1,,0.706666667
Exp_EEG2.txt,2,5,101,216,penseel,oase,glazuur,vlinder,butterfly.png,7,unstructured,uc,NO,780,1,,0.706666667
Exp_EEG2.txt,2,5,102,150,hagedis,reptiel,vergif,slang ,snake.png,3,unstructured,c,NO,660,1,,0.577843257
Exp_EEG2.txt,2,5,103,76,legde,armband,bij,kapstok,coatrack.png,9,structured,uc,VOP,790,1,,0.758695244
Exp_EEG2.txt,2,5,104,127,gazon,weide,maaier,gras,grass.png,3,unstructured,c,NO,690,1,,0.581611007
Exp_EEG2.txt,2,5,105,187,benzine,publiek,oven,koffer,suitcase.png,7,unstructured,uc,NO,620,1,,0.585378757
Exp_EEG2.txt,2,5,106,215,prins,apparaat,trofee,vliegtuig,plane.png,7,unstructured,uc,NO,660,1,,0.624940129
Exp_EEG2.txt,2,5,107,15,schonk,wijn,in,glas,glass.png,1,structured,c,VOP,920,1,,0.817095364
Exp_EEG2.txt,2,5,108,219,gazon,krater,statief,woestijn,desert.png,7,unstructured,uc,NO,1360,0,vulkaan,1.2
Exp_EEG2.txt,2,5,109,151,rodeo,horens,vee,stier,bull.png,3,unstructured,c,NO,990,1,,0.653198252
Exp_EEG2.txt,2,5,110,5,leest,evangelie,uit,bijbel,bible.png,1,structured,c,VOP,770,1,,0.733333333
Exp_EEG2.txt,2,6,111,51,eend,zwemt,in,water,water.png,1,structured,c,SVP,930,1,,0.893333333
Exp_EEG2.txt,2,6,112,89,vogels,vlogen,over,nest,nest.png,9,structured,uc,SVP,880,1,,0.826666667
Exp_EEG2.txt,2,6,113,111,zomer,vrucht,beschuit,aardbei,strawberry.png,3,unstructured,c,NO,600,1,,0.653333333
Exp_EEG2.txt,2,6,114,25,sloot,wijnfles,met,kurk,cork02.png,1,structured,c,VOP,640,1,,0.589146507
Exp_EEG2.txt,2,6,115,196,dooier,ruimtestation,foto,plantje,plant02b.png,7,unstructured,uc,NO,760,1,,0.72
Exp_EEG2.txt,2,6,116,7,leerling,bladerde,door,boek,book.png,1,structured,c,SVP,860,1,,0.818979239
Exp_EEG2.txt,2,6,117,68,moeder,liep,naar,deur,deur.png,9,structured,uc,SVP,740,1,,0.685224124
Exp_EEG2.txt,2,6,118,117,popcorn,filmfestival,kaartje,bioscoop,bioscoop.png,3,unstructured,c,NO,940,1,,0.826666667
Exp_EEG2.txt,2,6,119,167,aansteker,elfen,dierentuin,alien,alien.png,7,unstructured,uc,NO,770,1,,0.724785496
Exp_EEG2.txt,2,6,120,195,toetsenbord,vakantie,horens,pistool,gun.png,7,unstructured,uc,NO,0,1,,0.706666667
Exp_EEG2.txt,2,6,121,75,vrouw,koos,voor,ijsje,ijsje.png,9,structured,uc,SVP,950,1,,0.92
Exp_EEG2.txt,2,6,122,121,zoomlens,foto,statief,camera,camera.png,3,unstructured,c,NO,710,1,,0.67580475
Exp_EEG2.txt,2,6,123,129,cadeau,elfen,rendier,kerstman,santa.png,3,unstructured,c,NO,710,1,,0.68
Exp_EEG2.txt,2,6,124,71,zag,reclame,over,hamer,hammer02b.png,9,structured,uc,VOP,820,1,,0.786666667
Exp_EEG2.txt,2,6,125,66,nam,mand,met,brood,brood.png,9,structured,uc,VOP,850,1,,0.693333333
Exp_EEG2.txt,2,6,126,74,kocht,deken,voor,hond,dog.png,9,structured,uc,VOP,0,1,,0.626666667
Exp_EEG2.txt,2,6,127,193,toiletpapier,programmeur,capuchon,oor,ear.png,7,unstructured,uc,NO,830,1,,0.76
Exp_EEG2.txt,2,6,128,164,kameel,cactus,oase,woestijn,desert.png,3,unstructured,c,NO,1460,0,oase,1.28
Exp_EEG2.txt,2,6,129,206,lava,kaneel,draad,stier,bull.png,7,unstructured,uc,NO,1120,1,,0.843469612
Exp_EEG2.txt,2,6,130,36,boogschieter,schoot,met,pijl,arrow02.png,1,structured,c,SVP,570,1,,0.546666667
Exp_EEG2.txt,2,6,131,171,winkelwagen,zadel,snaar,bijen,bijen.png,7,unstructured,uc,NO,840,1,,0.813333333
Exp_EEG2.txt,2,6,132,208,kin,vee,holster,taart,cake.png,7,unstructured,uc,NO,710,1,,0.673920875
Exp_EEG2.txt,2,7,133,97,concierge,keek,naar,schoolbord,schoolbord.png,9,structured,uc,SVP,830,2,bord,0.754927494
Exp_EEG2.txt,2,7,134,185,vaasje,ballon,tsunami,kikker,frog.png,7,unstructured,uc,NO,670,1,,0.634359503
Exp_EEG2.txt,2,7,135,210,vergif,cocon,leger,tomaat,tomato01.png,7,unstructured,uc,NO,0,1,,0.613333333
Exp_EEG2.txt,2,7,136,145,herder,kudde,wol,schaap,sheep.png,3,unstructured,c,NO,930,1,,0.794488866
Exp_EEG2.txt,2,7,137,104,vroeg,prijs,van,TV,television.png,9,structured,uc,VOP,1370,1,televisie,1.295599578
Exp_EEG2.txt,2,7,138,14,gymleraar,blaast,op,fluitje,whistle.png,1,structured,c,SVP,710,1,,0.666666667
Exp_EEG2.txt,2,7,139,56,vader,arriveerde,met,bal,ball02.png,9,structured,uc,SVP,940,1,,0.847237362
Exp_EEG2.txt,2,7,140,33,spiegel,hangt,aan,muur,wall2.png,1,structured,c,SVP,770,1,,0.586666667
Exp_EEG2.txt,2,7,141,146,museum,penseel,landschap,schilderij,schilderij.png,3,unstructured,c,NO,770,1,,0.64
Exp_EEG2.txt,2,7,142,142,patrouille,badge,dief,politieagent,policeman.png,3,unstructured,c,NO,1229,1,,0.977224727
Exp_EEG2.txt,2,7,143,189,zebrapad,vingerhoed,heelal,mobieltje,mobile.png,7,unstructured,uc,NO,740,2,telefoon,0.706666667
Exp_EEG2.txt,2,7,144,43,drinkt,chocomelk,met,slagroom,slagroom.png,1,structured,c,VOP,1000,1,,0.826666667
Exp_EEG2.txt,2,7,145,114,snor,kin,sik,baard,beard.png,3,unstructured,c,NO,700,1,,0.632475628
Exp_EEG2.txt,2,7,146,138,koptelefoon,wattenstaafje,trommelvlies,oor,ear.png,3,unstructured,c,NO,680,1,,0.653333333
Exp_EEG2.txt,2,7,147,192,warmte,asbak,pedaal,olifant,elephant.png,7,unstructured,uc,NO,690,1,,0.64
Exp_EEG2.txt,2,7,148,106,stelletje,staarde,naar,water,water.png,9,structured,uc,SVP,780,1,,0.72
Exp_EEG2.txt,2,7,149,125,dooier,kip,omelet,ei,egg.png,3,unstructured,c,NO,680,1,,0.613333333
Exp_EEG2.txt,2,7,150,116,stuifmeel,honing,nectar,bijen,bijen.png,3,unstructured,c,NO,730,1,,0.653333333
Exp_EEG2.txt,2,7,151,120,trouwerij,sluier,jurk,bruid,bruid.png,3,unstructured,c,NO,0,1,,0.769998493
Exp_EEG2.txt,2,7,152,63,familie,speelde,bij,boom,tree.png,9,structured,uc,SVP,740,1,,0.666666667
Exp_EEG2.txt,2,7,153,176,beltoon,sla,achterzak,camera,camera.png,7,unstructured,uc,NO,700,1,,0.666385376
Exp_EEG2.txt,2,7,154,45,zoeken,schelpen,op,strand,beach.png,1,structured,c,VOP,690,1,,0.459159141
Exp_EEG2.txt,2,8,155,186,sluier,bagage,druppels ,koe,cow.png,7,unstructured,uc,NO,1070,1,,0.967805353
Exp_EEG2.txt,2,8,156,86,beschadigde,voet,van,microscoop,microscope.png,9,structured,uc,VOP,1440,0,telescoop,1.413333333
Exp_EEG2.txt,2,8,157,162,tsunami,lava,krater,vulkaan,volcano.png,3,unstructured,c,NO,620,1,,0.559004509
Exp_EEG2.txt,2,8,158,37,meisjes,spelen,met,pop,doll.png,1,structured,c,SVP,570,1,,0.546666667
Exp_EEG2.txt,2,8,159,143,pen,slijper,gum,potlood,pencil01.png,3,unstructured,c,NO,520,1,,0.493333333
Exp_EEG2.txt,2,8,160,50,zet,bloemen,in,vaas,vase01.png,1,structured,c,VOP,580,1,,0.546666667
Exp_EEG2.txt,2,8,161,93,verloor,pakket,van,puzzel,puzzle.png,9,structured,uc,VOP,900,1,,0.88
Exp_EEG2.txt,2,8,162,77,opa,ging,naar,kerk,church.png,9,structured,uc,SVP,710,1,,0.666666667
Exp_EEG2.txt,2,8,163,202,wol,larve,pink,schoen,shoe.png,7,unstructured,uc,NO,0,1,,0.546666667
Exp_EEG2.txt,2,8,164,83,had,pijn,aan,lip,lip.png,9,structured,uc,VOP,0,0,mond,0.986666667
Exp_EEG2.txt,2,8,165,178,schietschijf,wenkbrauw,honing,computer,computer.png,7,unstructured,uc,NO,0,1,,0.805792115
Exp_EEG2.txt,2,8,166,54,waste,handen,met,zeep,soap03b.png,1,structured,c,VOP,0,1,,0.733333333
Exp_EEG2.txt,2,8,167,88,jongen,sprong,over,muur,wall2.png,9,structured,uc,SVP,0,1,,0.746666667
Exp_EEG2.txt,2,8,168,128,klok,tijd,bandje,horloge,watch.png,3,unstructured,c,NO,0,1,,0.666666667
Exp_EEG2.txt,2,8,169,9,padvinder,liep,door,bos,forest.png,1,structured,c,SVP,800,1,,0.713482247
Exp_EEG2.txt,2,8,170,42,leraar,schreef,op,schoolbord,schoolbord.png,1,structured,c,SVP,840,1,,0.715366122
Exp_EEG2.txt,2,8,171,159,strijkstok,kin,snaar,viool,violin.png,3,unstructured,c,NO,0,0,gitaar,0.536398011
Exp_EEG2.txt,2,8,172,197,batterij,lucifer,tong,politieagent,policeman.png,7,unstructured,uc,NO,780,2,agent,0.749275869
Exp_EEG2.txt,2,8,173,2,kind,slaapt,in,bed,bed.png,1,structured,c,SVP,790,1,,0.746666667
Exp_EEG2.txt,2,8,174,175,software,vrucht,nek,bruid,bruid.png,7,unstructured,uc,NO,820,1,,0.693333333
Exp_EEG2.txt,2,8,175,98,vulde,kom,met,slagroom,slagroom.png,9,structured,uc,VOP,840,1,,0.768114618
Exp_EEG2.txt,2,8,176,161,larve,rups,cocon,vlinder,butterfly.png,3,unstructured,c,NO,0,1,,0.706666667
Exp_EEG2.txt,2,9,177,82,krabde,neus,met,lepel,spoon02b.png,9,structured,uc,VOP,840,1,,0.779417867
Exp_EEG2.txt,2,9,178,126,handrem,pedaal,zadel,fiets,bike.png,3,unstructured,c,NO,590,1,,0.564656133
Exp_EEG2.txt,2,9,179,26,lapt,regels,aan,laars,boot02b.png,1,structured,c,VOP,610,1,,0.532630261
Exp_EEG2.txt,2,9,180,47,kampeerders,sliepen,in,tent,tent.png,1,structured,c,SVP,510,1,,0.466666667
Exp_EEG2.txt,2,9,181,110,arbeiders,zaten,in,zon,sun.png,9,structured,uc,SVP,840,1,,0.726669371
Exp_EEG2.txt,2,9,182,22,priester,preekt,in,kerk,church.png,1,structured,c,SVP,810,1,,0.786666667
Exp_EEG2.txt,2,9,183,166,kogel,ufo,ijsblokje,aardbei,strawberry.png,7,unstructured,uc,NO,680,1,,0.666666667
Exp_EEG2.txt,2,9,184,28,kreeg,tand,door,lip,lip.png,1,structured,c,VOP,0,0,mond,0.72
Exp_EEG2.txt,2,9,185,123,toetsenbord,programmeur,software,computer,computer.png,3,unstructured,c,NO,940,1,,0.613333333
Exp_EEG2.txt,2,9,186,31,analyseert,bloedcellen,onder,microscoop,microscope.png,1,structured,c,VOP,720,1,,0.68
Exp_EEG2.txt,2,9,187,109,scheurde,verpakking,van,zeep,soap03b.png,9,structured,uc,VOP,670,1,,0.626824004
Exp_EEG2.txt,2,9,188,70,vond,pluisje,in,glas,glass.png,9,structured,uc,VOP,820,1,,0.8
Exp_EEG2.txt,2,9,189,155,salade,komkommer,sla,tomaat,tomato01.png,3,unstructured,c,NO,0,1,,0.739856495
Exp_EEG2.txt,2,9,190,46,bewaart,lippenstift,in,tas,tas.png,1,structured,c,VOP,720,1,,0.683340249
Exp_EEG2.txt,2,9,191,73,man,zat,bij,hengel,fishingrod.png,9,structured,uc,SVP,0,1,,0.754927494
Exp_EEG2.txt,2,9,192,24,las,artikel,in,krant,newspaper.png,1,structured,c,VOP,560,1,,0.493333333
Exp_EEG2.txt,2,9,193,6,hakte,hout,met,bijl,axe.png,1,structured,c,VOP,650,1,,0.626666667
Exp_EEG2.txt,2,9,194,168,invasie,chocolade,kampioen,auto,car.png,7,unstructured,uc,NO,680,1,,0.640011128
Exp_EEG2.txt,2,9,195,134,beltoon,tekstbericht,batterij,mobieltje,mobile.png,3,unstructured,c,NO,690,2,telefoon,0.653333333
Exp_EEG2.txt,2,9,196,96,leerling,zeurde,om,schaar,scissors08.png,9,structured,uc,SVP,790,1,,0.607084489
Exp_EEG2.txt,2,9,197,52,plakt,pleister,op,wond,wound.png,1,structured,c,VOP,620,1,,0.546666667
Exp_EEG2.txt,2,9,198,44,puppy,kwispelt,met,staart,tail.png,1,structured,c,SVP,810,1,,0.619288504
Exp_EEG2.txt,2,10,199,183,kaas,geld,patrouille,horloge,watch.png,7,unstructured,uc,NO,720,1,,0.666666667
Exp_EEG2.txt,2,10,200,205,atleet,oorbel,kudde,slang ,snake.png,7,unstructured,uc,NO,760,1,,0.608324123
Exp_EEG2.txt,2,10,201,172,zolder,ontstopper,klok,bioscoop,bioscoop.png,7,unstructured,uc,NO,0,1,,0.813333333
Exp_EEG2.txt,2,10,202,8,blad,valt,van,boom,tree.png,1,structured,c,SVP,620,1,,0.546666667
Exp_EEG2.txt,2,10,203,182,omelet,handrem,sonate,gras,grass.png,7,unstructured,uc,NO,740,1,,0.706666667
Exp_EEG2.txt,2,10,204,158,handpalm,duim,pink,vinger,finger.png,3,unstructured,c,NO,800,1,,0.64
Exp_EEG2.txt,2,10,205,17,reed,scooter,zonder,helm,helmet.png,1,structured,c,VOP,600,1,,0.546666667
Exp_EEG2.txt,2,10,206,135,draad,kleermaker,vingerhoed,naald,needle.png,3,unstructured,c,NO,1230,0,pincet,1.066666667
Exp_EEG2.txt,2,10,207,92,meisje,droomde,van,pop,doll.png,9,structured,uc,SVP,0,1,,0.64
Exp_EEG2.txt,2,10,208,218,buffel,koptelefoon,filmfestival,wc,wc2.png,7,unstructured,uc,NO,900,1,,0.853333333
Exp_EEG2.txt,2,10,209,108,peuter,proefde,van,wortel,carrot02.png,9,structured,uc,SVP,710,1,,0.666666667
Exp_EEG2.txt,2,10,210,101,spaarde,geld,voor,tas,tas.png,9,structured,uc,VOP,750,1,,0.72
Exp_EEG2.txt,2,10,211,118,bakker,kaas,hagelslag,boterham,boterham.png,3,unstructured,c,NO,670,1,,0.653333333
Exp_EEG2.txt,2,10,212,3,bereikten,top,van,berg,berg.png,1,structured,c,VOP,740,1,,0.72
Exp_EEG2.txt,2,10,213,49,zag,serie,op,TV,television.png,1,structured,c,VOP,750,1,,0.693333333
Exp_EEG2.txt,2,10,214,62,huisgenoot,struikelde,over,boek,book.png,9,structured,uc,SVP,730,1,,0.706666667
Exp_EEG2.txt,2,10,215,19,kocht,halsband,voor,hond,dog.png,1,structured,c,VOP,0,1,,0.613333333
Exp_EEG2.txt,2,10,216,214,stuifmeel,egypte,trede,viool,violin.png,7,unstructured,uc,NO,980,1,,0.84
Exp_EEG2.txt,2,10,217,107,raadpleegde,buurvrouw,over,wond,wound.png,9,structured,uc,VOP,820,1,,0.773333333
Exp_EEG2.txt,2,10,218,152,kassa,gangpad,winkelwagen,supermarkt,supermarket.png,3,unstructured,c,NO,1120,1,,0.907108196
Exp_EEG2.txt,2,10,219,91,kerel,sprong,naast,pijl,arrow02.png,9,structured,uc,SVP,870,1,,0.84
Exp_EEG2.txt,2,10,220,60,bestelde,exemplaar,van ,bijbel,bible.png,9,structured,uc,VOP,660,1,,0.573333333
Exp_EEG3.txt,3,1,1,16,slaat,spijker,met,hamer,hammer02b.png,1,structured,c,VOP,459,1,,0.515407389
Exp_EEG3.txt,3,1,2,123,toetsenbord,programmeur,software,computer,computer.png,3,unstructured,c,NO,550,1,,0.625427647
Exp_EEG3.txt,3,1,3,44,puppy,kwispelt,met,staart,tail.png,1,structured,c,SVP,620,1,,0.766230743
Exp_EEG3.txt,3,1,4,175,software,vrucht,nek,bruid,bruid.png,7,unstructured,uc,NO,711,1,,0.705946748
Exp_EEG3.txt,3,1,5,124,koelkast,ijsblokje,apparaat,diepvries,freezer01.png,3,unstructured,c,NO,560,0,koelkast,0.683340249
Exp_EEG3.txt,3,1,6,55,aarde,draait,om,zon,sun.png,1,structured,c,SVP,550,1,,0.517559262
Exp_EEG3.txt,3,1,7,91,kerel,sprong,naast,pijl,arrow02.png,9,structured,uc,SVP,590,1,,0.722901621
Exp_EEG3.txt,3,1,8,159,strijkstok,kin,snaar,viool,violin.png,3,unstructured,c,NO,710,0,gitaar,0.677688625
Exp_EEG3.txt,3,1,9,154,vloer,decoratie,franjes,tapijt,carpet.png,3,unstructured,c,NO,600,2,kleed,0.705946748
Exp_EEG3.txt,3,1,10,135,draad,kleermaker,vingerhoed,naald,needle.png,3,unstructured,c,NO,670,0,pijl,0.666666667
Exp_EEG3.txt,3,1,11,66,nam,mand,met,brood,brood.png,9,structured,uc,VOP,509,1,,0.512123678
Exp_EEG3.txt,3,1,12,196,dooier,ruimtestation,foto,plantje,plant02b.png,7,unstructured,uc,NO,650,1,plant,0.653333333
Exp_EEG3.txt,3,1,13,29,astronaut,landde,op,maan,moon.png,1,structured,c,SVP,759,0,zon,0.744580212
Exp_EEG3.txt,3,1,14,158,handpalm,duim,pink,vinger,finger.png,3,unstructured,c,NO,580,1,,0.516150886
Exp_EEG3.txt,3,1,15,210,vergif,cocon,leger,tomaat,tomato01.png,7,unstructured,uc,NO,610,1,,0.613333333
Exp_EEG3.txt,3,1,16,33,spiegel,hangt,aan,muur,wall2.png,1,structured,c,SVP,700,0,stenen(brick),0.6804597
Exp_EEG3.txt,3,1,17,140,schietschijf,kogel,holster,pistool,gun.png,3,unstructured,c,NO,601,1,,0.580673223
Exp_EEG3.txt,3,1,18,127,gazon,weide,maaier,gras,grass.png,3,unstructured,c,NO,520,1,,0.47423014
Exp_EEG3.txt,3,1,19,96,leerling,zeurde,om,schaar,scissors08.png,9,structured,uc,SVP,580,1,,0.559004509
Exp_EEG3.txt,3,1,20,1,jongens,spelen,met,bal,ball02.png,1,structured,c,SVP,860,2,tennisbal,0.918824607
Exp_EEG3.txt,3,1,21,42,leraar,schreef,op,schoolbord,schoolbord.png,1,structured,c,SVP,630,1,,0.707830623
Exp_EEG3.txt,3,1,22,25,sloot,wijnfles,met,kurk,cork02.png,1,structured,c,VOP,990,0,brood,0.960269853
Exp_EEG3.txt,3,2,23,119,benen,achterzak,gulp,broek,pants2.png,3,unstructured,c,NO,620,1,,0.613333333
Exp_EEG3.txt,3,2,24,112,heelal,ufo,invasie,alien,alien.png,3,unstructured,c,NO,741,1,,0.719133872
Exp_EEG3.txt,3,2,25,147,sok,zolen,veters,schoen,shoe.png,3,unstructured,c,NO,460,1,,0.532630261
Exp_EEG3.txt,3,2,26,28,kreeg,tand,door,lip,lip.png,1,structured,c,VOP,520,1,,0.513791512
Exp_EEG3.txt,3,2,27,12,zwerver,leeft,onder,brug,bridge.png,1,structured,c,SVP,520,1,,0.52
Exp_EEG3.txt,3,2,28,45,zoeken,schelpen,op,strand,beach.png,1,structured,c,VOP,370,1,,0.445972017
Exp_EEG3.txt,3,2,29,117,popcorn,filmfestival,kaartje,bioscoop,bioscoop.png,3,unstructured,c,NO,360,1,,0.436552643
Exp_EEG3.txt,3,2,30,53,konijn,knaagt,op,wortel,carrot02.png,1,structured,c,SVP,710,1,,0.700295123
Exp_EEG3.txt,3,2,31,190,bloem,rundvlees,tekstbericht,naald,needle.png,7,unstructured,uc,NO,680,1,,0.666666667
Exp_EEG3.txt,3,2,32,136,inktvis,weekdier,tentakel,octopus,octopus.png,3,unstructured,c,NO,450,1,,0.425249394
Exp_EEG3.txt,3,2,33,84,wetenschapper,sprak,over,maan,moon.png,9,structured,uc,SVP,860,0,aarden,0.866076111
Exp_EEG3.txt,3,2,34,149,winter,nek,wol,sjaal,scarf.png,3,unstructured,c,NO,641,1,,0.67580475
Exp_EEG3.txt,3,2,35,59,sloeg,kakkerlak,met,bezem,broom01.png,9,structured,uc,VOP,610,1,,0.602333631
Exp_EEG3.txt,3,2,36,107,raadpleegde,buurvrouw,over,wond,wound.png,9,structured,uc,VOP,640,1,,0.702178998
Exp_EEG3.txt,3,2,37,17,reed,scooter,zonder,helm,helmet.png,1,structured,c,VOP,490,1,,0.539894143
Exp_EEG3.txt,3,2,38,64,vrienden,gingen,naar,bos,forest.png,9,structured,uc,SVP,630,1,,0.624940129
Exp_EEG3.txt,3,2,39,5,leest,evangelie,uit,bijbel,bible.png,1,structured,c,VOP,600,1,,0.592914256
Exp_EEG3.txt,3,2,40,97,concierge,keek,naar,schoolbord,schoolbord.png,9,structured,uc,SVP,710,1,,0.687107999
Exp_EEG3.txt,3,2,41,121,zoomlens,foto,statief,camera,camera.png,3,unstructured,c,NO,680,1,,0.68
Exp_EEG3.txt,3,2,42,69,dolfijn,luisterde,naar,fluitje,whistle.png,9,structured,uc,SVP,580,1,,0.651314377
Exp_EEG3.txt,3,2,43,113,bestuurder,snelweg,benzine,auto,car.png,3,unstructured,c,NO,610,1,,0.583494882
Exp_EEG3.txt,3,2,44,63,familie,speelde,bij,boom,tree.png,9,structured,uc,SVP,1050,0,park,1.04
Exp_EEG3.txt,3,3,45,89,vogels,vlogen,over,nest,nest.png,9,structured,uc,SVP,710,0,mandje'. Not a synonym,0.706666667
Exp_EEG3.txt,3,3,46,180,maaier,graf,barak,ei,egg.png,7,unstructured,uc,NO,550,1,,0.653333333
Exp_EEG3.txt,3,3,47,98,vulde,kom,met,slagroom,slagroom.png,9,structured,uc,VOP,590,1,,0.624940129
Exp_EEG3.txt,3,3,48,201,snelweg,lontje,groente,schilderij,schilderij.png,7,unstructured,uc,NO,670,1,,0.641895003
Exp_EEG3.txt,3,3,49,192,warmte,asbak,pedaal,olifant,elephant.png,7,unstructured,uc,NO,490,1,,0.559004509
Exp_EEG3.txt,3,3,50,220,tijd,ambassadeur,winter,ziekenhuis,ziekenhuis.png,7,unstructured,uc,NO,610,1,,0.685224124
Exp_EEG3.txt,3,3,51,56,vader,arriveerde,met,bal,ball02.png,9,structured,uc,SVP,790,2,tennisbal,0.786666667
Exp_EEG3.txt,3,3,52,185,vaasje,ballon,tsunami,kikker,frog.png,7,unstructured,uc,NO,630,1,,0.707830623
Exp_EEG3.txt,3,3,53,183,kaas,geld,patrouille,horloge,watch.png,7,unstructured,uc,NO,610,1,,0.706666667
Exp_EEG3.txt,3,3,54,217,radiateur,sok,tribune,vulkaan,volcano.png,7,unstructured,uc,NO,769,1,sulcaan. I hear 'vulkaan' but he has a lispel (I don't know if that's the correct word),0.717249997
Exp_EEG3.txt,3,3,55,23,hamster,breekt,uit,kooi,cage.png,1,structured,c,SVP,530,1,,0.528862511
Exp_EEG3.txt,3,3,56,61,greep,handvat,van,bijl,axe.png,9,structured,uc,VOP,1002,1,,0.892838754
Exp_EEG3.txt,3,3,57,157,groente,knoflook,sjalot,ui,onion.png,3,unstructured,c,NO,1040,1,,1.026666667
Exp_EEG3.txt,3,3,58,211,badge,komkommer,weide,trap,stairs.png,7,unstructured,uc,NO,730,1,,0.724785496
Exp_EEG3.txt,3,3,59,58,hield,presentatie,over,berg,berg.png,9,structured,uc,VOP,690,1,,0.670153125
Exp_EEG3.txt,3,3,60,57,doos,staat,bij,bed,bed.png,9,structured,uc,SVP,690,1,,0.68
Exp_EEG3.txt,3,3,61,176,beltoon,sla,achterzak,camera,camera.png,7,unstructured,uc,NO,650,1,,0.653333333
Exp_EEG3.txt,3,3,62,18,visser,trekt,aan,hengel,fishingrod.png,1,structured,c,SVP,620,1,,0.658849876
Exp_EEG3.txt,3,3,63,208,kin,vee,holster,taart,cake.png,7,unstructured,uc,NO,860,1,,0.853333333
Exp_EEG3.txt,3,3,64,163,wastafel,toiletpapier,ontstopper,wc,wc2.png,3,unstructured,c,NO,710,1,,0.696527373
Exp_EEG3.txt,3,3,65,92,meisje,droomde,van,pop,doll.png,9,structured,uc,SVP,930,1,,0.92
Exp_EEG3.txt,3,3,66,150,hagedis,reptiel,vergif,slang ,snake.png,3,unstructured,c,NO,839,1,,0.835934113
Exp_EEG3.txt,3,4,67,43,drinkt,chocomelk,met,slagroom,slagroom.png,1,structured,c,VOP,559,1,,0.553352884
Exp_EEG3.txt,3,4,68,155,salade,komkommer,sla,tomaat,tomato01.png,3,unstructured,c,NO,580,1,,0.58018526
Exp_EEG3.txt,3,4,69,139,farao,egypte,graf,piramide,pyramid.png,3,unstructured,c,NO,720,1,,0.706666667
Exp_EEG3.txt,3,4,70,11,strooit,hagelslag,op,brood,brood.png,1,structured,c,VOP,470,1,,0.451623642
Exp_EEG3.txt,3,4,71,137,dierentuin,zebra,slurf,olifant,elephant.png,3,unstructured,c,NO,720,1,,0.696527373
Exp_EEG3.txt,3,4,72,145,herder,kudde,wol,schaap,sheep.png,3,unstructured,c,NO,670,1,,0.728553246
Exp_EEG3.txt,3,4,73,128,klok,tijd,bandje,horloge,watch.png,3,unstructured,c,NO,770,1,,0.773333333
Exp_EEG3.txt,3,4,74,102,klanten,klaagden,over,tent,tent.png,9,structured,uc,SVP,640,1,,0.643778877
Exp_EEG3.txt,3,4,75,125,dooier,kip,omelet,ei,egg.png,3,unstructured,c,NO,690,1,,0.68
Exp_EEG3.txt,3,4,76,46,bewaart,lippenstift,in,tas,tas.png,1,structured,c,VOP,620,1,,0.626666667
Exp_EEG3.txt,3,4,77,151,rodeo,horens,vee,stier,bull.png,3,unstructured,c,NO,1270,0,koe ,1.266666667
Exp_EEG3.txt,3,4,78,52,plakt,pleister,op,wond,wound.png,1,structured,c,VOP,460,1,,0.440320393
Exp_EEG3.txt,3,4,79,86,beschadigde,voet,van,microscoop,microscope.png,9,structured,uc,VOP,1069,1,,1.066666667
Exp_EEG3.txt,3,4,80,198,dief,klavier,gieter,potlood,pencil01.png,7,unstructured,uc,NO,770,1,,0.88
Exp_EEG3.txt,3,4,81,38,telde,stukjes,van,puzzel,puzzle.png,1,structured,c,VOP,910,1,,0.893333333
Exp_EEG3.txt,3,4,82,165,dokter,verpleegster,ambulance,ziekenhuis,ziekenhuis.png,3,unstructured,c,NO,671,1,,0.668269251
Exp_EEG3.txt,3,4,83,153,oven,bloem,glazuur,taart,cake.png,3,unstructured,c,NO,680,1,,0.673920875
Exp_EEG3.txt,3,4,84,218,buffel,koptelefoon,filmfestival,wc,wc2.png,7,unstructured,uc,NO,640,0,TV,0.72
Exp_EEG3.txt,3,4,85,108,peuter,proefde,van,wortel,carrot02.png,9,structured,uc,SVP,840,1,,0.800140491
Exp_EEG3.txt,3,4,86,168,invasie,chocolade,kampioen,auto,car.png,7,unstructured,uc,NO,450,1,,0.519880826
Exp_EEG3.txt,3,4,87,126,handrem,pedaal,zadel,fiets,bike.png,3,unstructured,c,NO,490,1,,0.466694641
Exp_EEG3.txt,3,4,88,213,nectar,snor,rodeo,vinger,finger.png,7,unstructured,uc,NO,550,1,,0.506256013
Exp_EEG3.txt,3,5,89,67,opa,las,over,brug,bridge.png,9,structured,uc,SVP,560,1,,0.54770126
Exp_EEG3.txt,3,5,90,120,trouwerij,sluier,jurk,bruid,bruid.png,3,unstructured,c,NO,680,1,,0.673920875
Exp_EEG3.txt,3,5,91,195,toetsenbord,vakantie,horens,pistool,gun.png,7,unstructured,uc,NO,660,1,,0.660733751
Exp_EEG3.txt,3,5,92,82,krabde,neus,met,lepel,spoon02b.png,9,structured,uc,VOP,419,1,,0.586666667
Exp_EEG3.txt,3,5,93,174,straat,handpalm,reptiel,broek,pants2.png,7,unstructured,uc,NO,520,1,,0.52
Exp_EEG3.txt,3,5,94,156,zolder,leuning,trede,trap,stairs.png,3,unstructured,c,NO,230,1,,0.688991874
Exp_EEG3.txt,3,5,95,41,man,knipte,met,schaar,scissors08.png,1,structured,c,SVP,250,1,,0.523210887
Exp_EEG3.txt,3,5,96,13,vreemdeling,klopt,op,deur,deur.png,1,structured,c,SVP,730,1,,0.713482247
Exp_EEG3.txt,3,5,97,37,meisjes,spelen,met,pop,doll.png,1,structured,c,SVP,719,1,,0.719098355
Exp_EEG3.txt,3,5,98,81,vond,sok,in,laars,boot02b.png,9,structured,uc,VOP,820,1,,0.813333333
Exp_EEG3.txt,3,5,99,142,patrouille,badge,dief,politieagent,policeman.png,3,unstructured,c,NO,830,2,politie,0.826666667
Exp_EEG3.txt,3,5,100,184,vloer,zebra,navel,kerstman,santa.png,7,unstructured,uc,NO,550,1,,0.636243378
Exp_EEG3.txt,3,5,101,187,benzine,publiek,oven,koffer,suitcase.png,7,unstructured,uc,NO,630,0,tas,0.623056254
Exp_EEG3.txt,3,5,102,77,opa,ging,naar,kerk,church.png,9,structured,uc,SVP,680,1,,0.683340249
Exp_EEG3.txt,3,5,103,212,kleermaker,landschap,gum,ui,onion.png,7,unstructured,uc,NO,520,1,,0.636670104
Exp_EEG3.txt,3,5,104,109,scheurde,verpakking,van,zeep,soap03b.png,9,structured,uc,VOP,1510,1,,1.512245187
Exp_EEG3.txt,3,5,105,105,vergat,sleutels,in,vaas,vase01.png,9,structured,uc,VOP,729,1,,0.688991874
Exp_EEG3.txt,3,5,106,15,schonk,wijn,in,glas,glass.png,1,structured,c,VOP,780,1,,0.724785496
Exp_EEG3.txt,3,5,107,216,penseel,oase,glazuur,vlinder,butterfly.png,7,unstructured,uc,NO,610,1,,0.551469009
Exp_EEG3.txt,3,5,108,4,veegt,vloer,met,bezem,broom01.png,1,structured,c,VOP,350,1,,0.619288504
Exp_EEG3.txt,3,5,109,189,zebrapad,vingerhoed,heelal,mobieltje,mobile.png,7,unstructured,uc,NO,610,2,telefoon,0.694643499
Exp_EEG3.txt,3,5,110,72,doorzocht,vak,voor,helm,helmet.png,9,structured,uc,VOP,440,1,,0.613333333
Exp_EEG3.txt,3,6,111,144,ruimtestation,astronaut,lancering,raket,rocket.png,3,unstructured,c,NO,560,0,omission,0.982876352
Exp_EEG3.txt,3,6,112,78,jongen ,stond,voor,kooi,cage.png,9,structured,uc,SVP,550,1,,0.641895003
Exp_EEG3.txt,3,6,113,178,schietschijf,wenkbrauw,honing,computer,computer.png,7,unstructured,uc,NO,420,1,,0.60610138
Exp_EEG3.txt,3,6,114,152,kassa,gangpad,winkelwagen,supermarkt,supermarket.png,3,unstructured,c,NO,1220,1,,1.197638085
Exp_EEG3.txt,3,6,115,148,aansteker,pijp,asbak,sigaret,cigarrette.png,3,unstructured,c,NO,590,1,,0.63833334
Exp_EEG3.txt,3,6,116,34,vogels,broeden,in,nest,nest.png,1,structured,c,SVP,530,1,,0.746666667
Exp_EEG3.txt,3,6,117,111,zomer,vrucht,beschuit,aardbei,strawberry.png,3,unstructured,c,NO,710,1,,0.706666667
Exp_EEG3.txt,3,6,118,26,lapt,regels,aan,laars,boot02b.png,1,structured,c,VOP,440,1,,0.429179959
Exp_EEG3.txt,3,6,119,197,batterij,lucifer,tong,politieagent,policeman.png,7,unstructured,uc,NO,650,1,,0.61363688
Exp_EEG3.txt,3,6,120,35,kok,roert,in,pan,pan.png,1,structured,c,SVP,440,1,,0.797968709
Exp_EEG3.txt,3,6,121,80,raakte,oog,met,kurk,cork02.png,9,structured,uc,VOP,520,0,mistake,0.6
Exp_EEG3.txt,3,6,122,24,las,artikel,in,krant,newspaper.png,1,structured,c,VOP,439,1,,0.44
Exp_EEG3.txt,3,6,123,47,kampeerders,sliepen,in,tent,tent.png,1,structured,c,SVP,470,1,,0.474806364
Exp_EEG3.txt,3,6,124,194,herder,ticket,cadeau,piramide,pyramid.png,7,unstructured,uc,NO,690,1,,0.68
Exp_EEG3.txt,3,6,125,170,waterlelie,sjalot,zolen,bier,beer.png,7,unstructured,uc,NO,670,1,,0.656966001
Exp_EEG3.txt,3,6,126,138,koptelefoon,wattenstaafje,trommelvlies,oor,ear.png,3,unstructured,c,NO,830,1,,0.826666667
Exp_EEG3.txt,3,6,127,75,vrouw,koos,voor,ijsje,ijsje.png,9,structured,uc,SVP,510,1,,0.626666667
Exp_EEG3.txt,3,6,128,94,haatte,kleur,van,raam,window01.png,9,structured,uc,VOP,651,1,,0.706666667
Exp_EEG3.txt,3,6,129,36,boogschieter,schoot,met,pijl,arrow02.png,1,structured,c,SVP,700,1,,0.693333333
Exp_EEG3.txt,3,6,130,214,stuifmeel,egypte,trede,viool,violin.png,7,unstructured,uc,NO,850,1,siool. Again the lispel but I do hear 'viool',0.832166363
Exp_EEG3.txt,3,6,131,3,bereikten,top,van,berg,berg.png,1,structured,c,VOP,450,1,,0.434668768
Exp_EEG3.txt,3,6,132,65,onderzoeker,gooide,met,bril,glasses01b.png,9,structured,uc,SVP,600,1,,0.600449756
Exp_EEG3.txt,3,7,133,186,sluier,bagage,druppels ,koe,cow.png,7,unstructured,uc,NO,470,1,,0.706666667
Exp_EEG3.txt,3,7,134,207,hertog,inktvis,wattenstaafje,supermarkt,supermarket.png,7,unstructured,uc,NO,730,1,,0.724001082
Exp_EEG3.txt,3,7,135,110,arbeiders,zaten,in,zon,sun.png,9,structured,uc,SVP,800,0,maan,0.788837241
Exp_EEG3.txt,3,7,136,167,aansteker,elfen,dierentuin,alien,alien.png,7,unstructured,uc,NO,640,1,,0.64
Exp_EEG3.txt,3,7,137,166,kogel,ufo,ijsblokje,aardbei,strawberry.png,7,unstructured,uc,NO,520,1,,0.52
Exp_EEG3.txt,3,7,138,114,snor,kin,sik,baard,beard.png,3,unstructured,c,NO,690,1,,0.681456375
Exp_EEG3.txt,3,7,139,71,zag,reclame,over,hamer,hammer02b.png,9,structured,uc,VOP,560,1,,0.641972315
Exp_EEG3.txt,3,7,140,104,vroeg,prijs,van,TV,television.png,9,structured,uc,VOP,990,1,,0.992295726
Exp_EEG3.txt,3,7,141,88,jongen,sprong,over,muur,wall2.png,9,structured,uc,SVP,610,1,,0.6
Exp_EEG3.txt,3,7,142,132,kleding,vakantie,bagage,koffer,suitcase.png,3,unstructured,c,NO,690,1,,0.786666667
Exp_EEG3.txt,3,7,143,79,verborg,pen,onder,krant,newspaper.png,9,structured,uc,VOP,570,1,,0.572191633
Exp_EEG3.txt,3,7,144,74,kocht,deken,voor,hond,dog.png,9,structured,uc,VOP,650,1,,0.64
Exp_EEG3.txt,3,7,145,68,moeder,liep,naar,deur,deur.png,9,structured,uc,SVP,500,1,,0.494952764
Exp_EEG3.txt,3,7,146,40,deed,aanzoek,met,ring,ring01.png,1,structured,c,VOP,810,1,,0.80390824
Exp_EEG3.txt,3,7,147,206,lava,kaneel,draad,stier,bull.png,7,unstructured,uc,NO,740,1,,0.724785496
Exp_EEG3.txt,3,7,148,209,piloot,kunstmest,strijkstok,tapijt,carpet.png,7,unstructured,uc,NO,680,1,,0.67580475
Exp_EEG3.txt,3,7,149,146,museum,penseel,landschap,schilderij,schilderij.png,3,unstructured,c,NO,400,1,,0.434668768
Exp_EEG3.txt,3,7,150,54,waste,handen,met,zeep,soap03b.png,1,structured,c,VOP,370,1,,0.361197649
Exp_EEG3.txt,3,7,151,134,beltoon,tekstbericht,batterij,mobieltje,mobile.png,3,unstructured,c,NO,710,2,telefoon,0.706666667
Exp_EEG3.txt,3,7,152,215,prins,apparaat,trofee,vliegtuig,plane.png,7,unstructured,uc,NO,840,1,,0.809559865
Exp_EEG3.txt,3,7,153,182,omelet,handrem,sonate,gras,grass.png,7,unstructured,uc,NO,590,1,,0.668269251
Exp_EEG3.txt,3,7,154,99,dier,beweegt,met,staart,tail.png,9,structured,uc,SVP,650,1,,0.634359503
Exp_EEG3.txt,3,8,155,122,circus,feestneus,ballon,clown,clown.png,3,unstructured,c,NO,720,1,,0.775650117
Exp_EEG3.txt,3,8,156,39,hing,gordijn,voor,raam,window01.png,1,structured,c,VOP,520,1,,0.6
Exp_EEG3.txt,3,8,157,188,jurk,popcorn,boer,koning,king.png,7,unstructured,uc,NO,530,1,,0.619288504
Exp_EEG3.txt,3,8,158,60,bestelde,exemplaar,van ,bijbel,bible.png,9,structured,uc,VOP,620,1,,0.603261502
Exp_EEG3.txt,3,8,159,50,zet,bloemen,in,vaas,vase01.png,1,structured,c,VOP,560,1,,0.534514136
Exp_EEG3.txt,3,8,160,141,gieter,kunstmest,grond,plantje,plant02b.png,3,unstructured,c,NO,760,1,,0.762462993
Exp_EEG3.txt,3,8,161,115,flesopener,vaasje,gerst,bier,beer.png,3,unstructured,c,NO,700,1,,0.683340249
Exp_EEG3.txt,3,8,162,101,spaarde,geld,voor,tas,tas.png,9,structured,uc,VOP,619,1,,0.613333333
Exp_EEG3.txt,3,8,163,116,stuifmeel,honing,nectar,bijen,bijen.png,3,unstructured,c,NO,540,1,,0.54016576
Exp_EEG3.txt,3,8,164,169,salade,kassa,amfibie,baard,beard.png,7,unstructured,uc,NO,580,1,,0.566540008
Exp_EEG3.txt,3,8,165,48,bouwde,hek,rond,tuin,garden.png,1,structured,c,VOP,740,1,,0.733333333
Exp_EEG3.txt,3,8,166,31,analyseert,bloedcellen,onder,microscoop,microscope.png,1,structured,c,VOP,420,1,,0.4
Exp_EEG3.txt,3,8,167,179,troon,beschuit,helikopter,diepvries,freezer01.png,7,unstructured,uc,NO,650,0,koelkast,0.758695244
Exp_EEG3.txt,3,8,168,131,kalf,boer,rundvlees,koe,cow.png,3,unstructured,c,NO,700,1,,0.790721116
Exp_EEG3.txt,3,8,169,118,bakker,kaas,hagelslag,boterham,boterham.png,3,unstructured,c,NO,540,2,brood,0.513791512
Exp_EEG3.txt,3,8,170,95,bewaarde,bonnetje,van,ring,ring01.png,9,structured,uc,VOP,510,1,,0.567954239
Exp_EEG3.txt,3,8,171,83,had,pijn,aan,lip,lip.png,9,structured,uc,VOP,620,1,lippen,0.613333333
Exp_EEG3.txt,3,8,172,100,ontmoetten,kennissen,op,strand,beach.png,9,structured,uc,VOP,570,1,,0.573333333
Exp_EEG3.txt,3,8,173,181,leuning,slurf,vlam,fiets,bike.png,7,unstructured,uc,NO,600,1,,0.561807072
Exp_EEG3.txt,3,8,174,202,wol,larve,pink,schoen,shoe.png,7,unstructured,uc,NO,780,1,,0.726669371
Exp_EEG3.txt,3,8,175,177,pijp,lauwerkrans,farao,clown,clown.png,7,unstructured,uc,NO,580,1,,0.635043417
Exp_EEG3.txt,3,8,176,85,vroegen,gastheer,om,mes,knife01.png,9,structured,uc,VOP,600,1,,0.6
Exp_EEG3.txt,3,9,177,219,gazon,krater,statief,woestijn,desert.png,7,unstructured,uc,NO,1260,1,,1.244734957
Exp_EEG3.txt,3,9,178,87,vlek,lijkt,op,muis,mouse.png,9,structured,uc,SVP,570,1,,0.573333333
Exp_EEG3.txt,3,9,179,10,opa,leest,met,bril,glasses01b.png,1,structured,c,SVP,510,1,,0.498720513
Exp_EEG3.txt,3,9,180,191,gangpad,zoomlens,bladmuziek,octopus,octopus.png,7,unstructured,uc,NO,570,1,,0.658337891
Exp_EEG3.txt,3,9,181,8,blad,valt,van,boom,tree.png,1,structured,c,SVP,490,1,,0.421481644
Exp_EEG3.txt,3,9,182,161,larve,rups,cocon,vlinder,butterfly.png,3,unstructured,c,NO,670,1,,0.61363688
Exp_EEG3.txt,3,9,183,200,trouwerij,verkeer,luier,schaap,sheep.png,7,unstructured,uc,NO,550,1,,0.645662752
Exp_EEG3.txt,3,9,184,143,pen,slijper,gum,potlood,pencil01.png,3,unstructured,c,NO,809,1,,1.065766845
Exp_EEG3.txt,3,9,185,73,man,zat,bij,hengel,fishingrod.png,9,structured,uc,SVP,679,1,,0.626824004
Exp_EEG3.txt,3,9,186,106,stelletje,staarde,naar,water,water.png,9,structured,uc,SVP,800,1,,0.80390824
Exp_EEG3.txt,3,9,187,20,kind,likt,aan,ijsje,ijsje.png,1,structured,c,SVP,440,1,,0.54993733
Exp_EEG3.txt,3,9,188,203,passagier,koelkast,veters,sigaret,cigarrette.png,7,unstructured,uc,NO,530,1,,0.638127253
Exp_EEG3.txt,3,9,189,129,cadeau,elfen,rendier,kerstman,santa.png,3,unstructured,c,NO,470,1,,0.728553246
Exp_EEG3.txt,3,9,190,21,hangt,jas,aan,kapstok,coatrack.png,1,structured,c,VOP,540,1,,0.632475628
Exp_EEG3.txt,3,9,191,173,vijver,piloot,franjes,boterham,boterham.png,7,unstructured,uc,NO,681,1,,0.670153125
Exp_EEG3.txt,3,9,192,7,leerling,bladerde,door,boek,book.png,1,structured,c,SVP,630,1,,0.615520755
Exp_EEG3.txt,3,9,193,19,kocht,halsband,voor,hond,dog.png,1,structured,c,VOP,400,1,,0.488669118
Exp_EEG3.txt,3,9,194,14,gymleraar,blaast,op,fluitje,whistle.png,1,structured,c,SVP,520,1,,0.530746386
Exp_EEG3.txt,3,9,195,205,atleet,oorbel,kudde,slang ,snake.png,7,unstructured,uc,NO,619,1,,0.615520755
Exp_EEG3.txt,3,9,196,199,decoratie,schoorsteen,bestuurder,raket,rocket.png,7,unstructured,uc,NO,650,1,,0.640011128
Exp_EEG3.txt,3,9,197,133,prins,hertog,troon,koning,king.png,3,unstructured,c,NO,490,1,,0.651314377
Exp_EEG3.txt,3,9,198,32,kat,jaagt,op,muis,mouse.png,1,structured,c,SVP,590,1,,0.590759433
Exp_EEG3.txt,3,10,199,160,piloot,helikopter,stewardess,vliegtuig,plane.png,3,unstructured,c,NO,720,1,,0.575959383
Exp_EEG3.txt,3,10,200,90,kok,wijst,naar,pan,pan.png,9,structured,uc,SVP,610,1,,0.6
Exp_EEG3.txt,3,10,201,193,toiletpapier,programmeur,capuchon,oor,ear.png,7,unstructured,uc,NO,540,1,,0.540418464
Exp_EEG3.txt,3,10,202,6,hakte,hout,met,bijl,axe.png,1,structured,c,VOP,380,1,,0.512143354
Exp_EEG3.txt,3,10,203,130,waterlelie,vijver,amfibie,kikker,frog.png,3,unstructured,c,NO,590,1,,0.576263867
Exp_EEG3.txt,3,10,204,2,kind,slaapt,in,bed,bed.png,1,structured,c,SVP,450,1,,0.43798036
Exp_EEG3.txt,3,10,205,70,vond,pluisje,in,glas,glass.png,9,structured,uc,VOP,570,1,,0.512143354
Exp_EEG3.txt,3,10,206,51,eend,zwemt,in,water,water.png,1,structured,c,SVP,550,1,,0.541405706
Exp_EEG3.txt,3,10,207,171,winkelwagen,zadel,snaar,bijen,bijen.png,7,unstructured,uc,NO,560,1,,0.552218675
Exp_EEG3.txt,3,10,208,22,priester,preekt,in,kerk,church.png,1,structured,c,SVP,620,1,,0.618746244
Exp_EEG3.txt,3,10,209,9,padvinder,liep,door,bos,forest.png,1,structured,c,SVP,530,1,,0.528173482
Exp_EEG3.txt,3,10,210,76,legde,armband,bij,kapstok,coatrack.png,9,structured,uc,VOP,680,1,,0.68
Exp_EEG3.txt,3,10,211,93,verloor,pakket,van,puzzel,puzzle.png,9,structured,uc,VOP,1081,1,,1.066666667
Exp_EEG3.txt,3,10,212,62,huisgenoot,struikelde,over,boek,book.png,9,structured,uc,SVP,510,1,,0.504554751
Exp_EEG3.txt,3,10,213,204,partij,benen,visum,sjaal,scarf.png,7,unstructured,uc,NO,630,1,,0.600476301
Exp_EEG3.txt,3,10,214,172,zolder,ontstopper,klok,bioscoop,bioscoop.png,7,unstructured,uc,NO,690,1,,0.682559363
Exp_EEG3.txt,3,10,215,30,sneed,vlees,met,mes,knife01.png,1,structured,c,VOP,410,1,,0.493333333
Exp_EEG3.txt,3,10,216,162,tsunami,lava,krater,vulkaan,volcano.png,3,unstructured,c,NO,570,1,,0.568266778
Exp_EEG3.txt,3,10,217,164,kameel,cactus,oase,woestijn,desert.png,3,unstructured,c,NO,891,1,,0.876002784
Exp_EEG3.txt,3,10,218,27,at,soep,met,lepel,spoon02b.png,1,structured,c,VOP,530,1,,0.546666667
Exp_EEG3.txt,3,10,219,103,brak,pols,in,tuin,garden.png,9,structured,uc,VOP,800,1,,0.813333333
Exp_EEG3.txt,3,10,220,49,zag,serie,op,TV,television.png,1,structured,c,VOP,440,1,,0.435028095
Exp_EEG4.txt,4,1,1,201,snelweg,lontje,groente,schilderij,schilderij.png,7,unstructured,uc,NO,809,1,,0.645662752
Exp_EEG4.txt,4,1,2,220,tijd,ambassadeur,winter,ziekenhuis,ziekenhuis.png,7,unstructured,uc,NO,860,1,,0.778145946
Exp_EEG4.txt,4,1,3,8,blad,valt,van,boom,tree.png,1,structured,c,SVP,760,1,,0.71314086
Exp_EEG4.txt,4,1,4,15,schonk,wijn,in,glas,glass.png,1,structured,c,VOP,770,1,,0.746666667
Exp_EEG4.txt,4,1,5,61,greep,handvat,van,bijl,axe.png,9,structured,uc,VOP,880,1,,0.773333333
Exp_EEG4.txt,4,1,6,66,nam,mand,met,brood,brood.png,9,structured,uc,VOP,900,1,,0.781301742
Exp_EEG4.txt,4,1,7,174,straat,handpalm,reptiel,broek,pants2.png,7,unstructured,uc,NO,831,1,,0.736088745
Exp_EEG4.txt,4,1,8,24,las,artikel,in,krant,newspaper.png,1,structured,c,VOP,679,1,,0.660733751
Exp_EEG4.txt,4,1,9,114,snor,kin,sik,baard,beard.png,3,unstructured,c,NO,740,1,,0.653333333
Exp_EEG4.txt,4,1,10,193,toiletpapier,programmeur,capuchon,oor,ear.png,7,unstructured,uc,NO,700,1,,0.645182221
Exp_EEG4.txt,4,1,11,206,lava,kaneel,draad,stier,bull.png,7,unstructured,uc,NO,1020,1,,0.858540611
Exp_EEG4.txt,4,1,12,81,vond,sok,in,laars,boot02b.png,9,structured,uc,VOP,910,1,,0.8
Exp_EEG4.txt,4,1,13,127,gazon,weide,maaier,gras,grass.png,3,unstructured,c,NO,740,1,,0.726858551
Exp_EEG4.txt,4,1,14,157,groente,knoflook,sjalot,ui,onion.png,3,unstructured,c,NO,690,1,,0.666666667
Exp_EEG4.txt,4,1,15,176,beltoon,sla,achterzak,camera,camera.png,7,unstructured,uc,NO,810,1,,0.780030399
Exp_EEG4.txt,4,1,16,100,ontmoetten,kennissen,op,strand,beach.png,9,structured,uc,VOP,920,1,,0.796372741
Exp_EEG4.txt,4,1,17,183,kaas,geld,patrouille,horloge,watch.png,7,unstructured,uc,NO,690,1,,0.666666667
Exp_EEG4.txt,4,1,18,204,partij,benen,visum,sjaal,scarf.png,7,unstructured,uc,NO,800,1,,0.642558349
Exp_EEG4.txt,4,1,19,76,legde,armband,bij,kapstok,coatrack.png,9,structured,uc,VOP,660,1,,0.64
Exp_EEG4.txt,4,1,20,154,vloer,decoratie,franjes,tapijt,carpet.png,3,unstructured,c,NO,0,0,hesitated,0.948964715
Exp_EEG4.txt,4,1,21,168,invasie,chocolade,kampioen,auto,car.png,7,unstructured,uc,NO,830,1,,0.813333333
Exp_EEG4.txt,4,1,22,58,hield,presentatie,over,berg,berg.png,9,structured,uc,VOP,841,1,,0.728003296
Exp_EEG4.txt,4,2,23,219,gazon,krater,statief,woestijn,desert.png,7,unstructured,uc,NO,710,1,,0.673920875
Exp_EEG4.txt,4,2,24,109,scheurde,verpakking,van,zeep,soap03b.png,9,structured,uc,VOP,1050,1,,0.964037603
Exp_EEG4.txt,4,2,25,18,visser,trekt,aan,hengel,fishingrod.png,1,structured,c,SVP,770,1,,0.733333333
Exp_EEG4.txt,4,2,26,112,heelal,ufo,invasie,alien,alien.png,3,unstructured,c,NO,490,1,,0.473301879
Exp_EEG4.txt,4,2,27,123,toetsenbord,programmeur,software,computer,computer.png,3,unstructured,c,NO,830,1,,0.813333333
Exp_EEG4.txt,4,2,28,116,stuifmeel,honing,nectar,bijen,bijen.png,3,unstructured,c,NO,520,1,,0.486074915
Exp_EEG4.txt,4,2,29,93,verloor,pakket,van,puzzel,puzzle.png,9,structured,uc,VOP,1060,1,,1.04
Exp_EEG4.txt,4,2,30,187,benzine,publiek,oven,koffer,suitcase.png,7,unstructured,uc,NO,840,1,,0.841432022
Exp_EEG4.txt,4,2,31,145,herder,kudde,wol,schaap,sheep.png,3,unstructured,c,NO,800,1,,0.611753005
Exp_EEG4.txt,4,2,32,80,raakte,oog,met,kurk,cork02.png,9,structured,uc,VOP,790,1,,0.773333333
Exp_EEG4.txt,4,2,33,29,astronaut,landde,op,maan,moon.png,1,structured,c,SVP,660,1,,0.533333333
Exp_EEG4.txt,4,2,34,139,farao,egypte,graf,piramide,pyramid.png,3,unstructured,c,NO,1070,1,,1.053333333
Exp_EEG4.txt,4,2,35,56,vader,arriveerde,met,bal,ball02.png,9,structured,uc,SVP,810,1,,0.772272028
Exp_EEG4.txt,4,2,36,128,klok,tijd,bandje,horloge,watch.png,3,unstructured,c,NO,460,1,,0.453333333
Exp_EEG4.txt,4,2,37,82,krabde,neus,met,lepel,spoon02b.png,9,structured,uc,VOP,640,1,,0.586666667
Exp_EEG4.txt,4,2,38,101,spaarde,geld,voor,tas,tas.png,9,structured,uc,VOP,980,1,,0.937663355
Exp_EEG4.txt,4,2,39,44,puppy,kwispelt,met,staart,tail.png,1,structured,c,SVP,500,1,,0.372500898
Exp_EEG4.txt,4,2,40,159,strijkstok,kin,snaar,viool,violin.png,3,unstructured,c,NO,700,1,,0.693333333
Exp_EEG4.txt,4,2,41,7,leerling,bladerde,door,boek,book.png,1,structured,c,SVP,880,0,mistake,1.099676593
Exp_EEG4.txt,4,2,42,67,opa,las,over,brug,bridge.png,9,structured,uc,SVP,780,1,,0.707830623
Exp_EEG4.txt,4,2,43,180,maaier,graf,barak,ei,egg.png,7,unstructured,uc,NO,800,1,,0.769998493
Exp_EEG4.txt,4,2,44,11,strooit,hagelslag,op,brood,brood.png,1,structured,c,VOP,540,1,,0.533333333
Exp_EEG4.txt,4,3,45,71,zag,reclame,over,hamer,hammer02b.png,9,structured,uc,VOP,2100,0,hesitated,2.068948035
Exp_EEG4.txt,4,3,46,198,dief,klavier,gieter,potlood,pencil01.png,7,unstructured,uc,NO,700,1,,0.693333333
Exp_EEG4.txt,4,3,47,186,sluier,bagage,druppels ,koe,cow.png,7,unstructured,uc,NO,770,1,,0.7090148
Exp_EEG4.txt,4,3,48,184,vloer,zebra,navel,kerstman,santa.png,7,unstructured,uc,NO,700,1,,0.665068297
Exp_EEG4.txt,4,3,49,106,stelletje,staarde,naar,water,water.png,9,structured,uc,SVP,750,1,,0.710456443
Exp_EEG4.txt,4,3,50,190,bloem,rundvlees,tekstbericht,naald,needle.png,7,unstructured,uc,NO,891,1,,0.762462993
Exp_EEG4.txt,4,3,51,200,trouwerij,verkeer,luier,schaap,sheep.png,7,unstructured,uc,NO,810,1,,0.640011128
Exp_EEG4.txt,4,3,52,142,patrouille,badge,dief,politieagent,policeman.png,3,unstructured,c,NO,520,1,,0.506666667
Exp_EEG4.txt,4,3,53,74,kocht,deken,voor,hond,dog.png,9,structured,uc,VOP,670,1,,0.649807816
Exp_EEG4.txt,4,3,54,153,oven,bloem,glazuur,taart,cake.png,3,unstructured,c,NO,700,1,,0.656966001
Exp_EEG4.txt,4,3,55,149,winter,nek,wol,sjaal,scarf.png,3,unstructured,c,NO,750,1,,0.589146507
Exp_EEG4.txt,4,3,56,48,bouwde,hek,rond,tuin,garden.png,1,structured,c,VOP,800,1,,0.749275869
Exp_EEG4.txt,4,3,57,52,plakt,pleister,op,wond,wound.png,1,structured,c,VOP,839,1,,0.754927494
Exp_EEG4.txt,4,3,58,3,bereikten,top,van,berg,berg.png,1,structured,c,VOP,550,1,,0.495485867
Exp_EEG4.txt,4,3,59,216,penseel,oase,glazuur,vlinder,butterfly.png,7,unstructured,uc,NO,670,1,,0.641006142
Exp_EEG4.txt,4,3,60,83,had,pijn,aan,lip,lip.png,9,structured,uc,VOP,809,1,,0.733333333
Exp_EEG4.txt,4,3,61,94,haatte,kleur,van,raam,window01.png,9,structured,uc,VOP,830,1,,0.783185617
Exp_EEG4.txt,4,3,62,12,zwerver,leeft,onder,brug,bridge.png,1,structured,c,SVP,580,1,,0.493068889
Exp_EEG4.txt,4,3,63,25,sloot,wijnfles,met,kurk,cork02.png,1,structured,c,VOP,650,1,,0.626666667
Exp_EEG4.txt,4,3,64,77,opa,ging,naar,kerk,church.png,9,structured,uc,SVP,740,1,,0.688991874
Exp_EEG4.txt,4,3,65,16,slaat,spijker,met,hamer,hammer02b.png,1,structured,c,VOP,1220,1,,1.173333333
Exp_EEG4.txt,4,3,66,136,inktvis,weekdier,tentakel,octopus,octopus.png,3,unstructured,c,NO,390,0,inktvis,1.256038206
Exp_EEG4.txt,4,4,67,131,kalf,boer,rundvlees,koe,cow.png,3,unstructured,c,NO,611,1,,0.553352884
Exp_EEG4.txt,4,4,68,150,hagedis,reptiel,vergif,slang ,snake.png,3,unstructured,c,NO,769,1,,0.591030381
Exp_EEG4.txt,4,4,69,43,drinkt,chocomelk,met,slagroom,slagroom.png,1,structured,c,VOP,810,1,,0.690875749
Exp_EEG4.txt,4,4,70,203,passagier,koelkast,veters,sigaret,cigarrette.png,7,unstructured,uc,NO,690,1,,0.594798131
Exp_EEG4.txt,4,4,71,64,vrienden,gingen,naar,bos,forest.png,9,structured,uc,SVP,900,1,,0.779417867
Exp_EEG4.txt,4,4,72,125,dooier,kip,omelet,ei,egg.png,3,unstructured,c,NO,420,1,,0.4
Exp_EEG4.txt,4,4,73,122,circus,feestneus,ballon,clown,clown.png,3,unstructured,c,NO,430,1,,0.32920377
Exp_EEG4.txt,4,4,74,60,bestelde,exemplaar,van ,bijbel,bible.png,9,structured,uc,VOP,640,1,,0.568423883
Exp_EEG4.txt,4,4,75,156,zolder,leuning,trede,trap,stairs.png,3,unstructured,c,NO,680,1,,0.636243378
Exp_EEG4.txt,4,4,76,96,leerling,zeurde,om,schaar,scissors08.png,9,structured,uc,SVP,760,1,,0.575959383
Exp_EEG4.txt,4,4,77,97,concierge,keek,naar,schoolbord,schoolbord.png,9,structured,uc,SVP,829,1,,0.683340249
Exp_EEG4.txt,4,4,78,144,ruimtestation,astronaut,lancering,raket,rocket.png,3,unstructured,c,NO,740,1,,0.693333333
Exp_EEG4.txt,4,4,79,151,rodeo,horens,vee,stier,bull.png,3,unstructured,c,NO,1040,1,,0.726669371
Exp_EEG4.txt,4,4,80,172,zolder,ontstopper,klok,bioscoop,bioscoop.png,7,unstructured,uc,NO,999,1,,0.973333333
Exp_EEG4.txt,4,4,81,39,hing,gordijn,voor,raam,window01.png,1,structured,c,VOP,640,1,,0.54016576
Exp_EEG4.txt,4,4,82,90,kok,wijst,naar,pan,pan.png,9,structured,uc,SVP,770,1,,0.746666667
Exp_EEG4.txt,4,4,83,152,kassa,gangpad,winkelwagen,supermarkt,supermarket.png,3,unstructured,c,NO,959,1,,0.875495485
Exp_EEG4.txt,4,4,84,121,zoomlens,foto,statief,camera,camera.png,3,unstructured,c,NO,730,1,,0.6795725
Exp_EEG4.txt,4,4,85,210,vergif,cocon,leger,tomaat,tomato01.png,7,unstructured,uc,NO,760,1,,0.705946748
Exp_EEG4.txt,4,4,86,27,at,soep,met,lepel,spoon02b.png,1,structured,c,VOP,620,1,,0.6
Exp_EEG4.txt,4,4,87,185,vaasje,ballon,tsunami,kikker,frog.png,7,unstructured,uc,NO,690,1,,0.651314377
Exp_EEG4.txt,4,4,88,143,pen,slijper,gum,potlood,pencil01.png,3,unstructured,c,NO,460,1,,0.44
Exp_EEG4.txt,4,5,89,104,vroeg,prijs,van,TV,television.png,9,structured,uc,VOP,940,0,computer scherm,0.932011731
Exp_EEG4.txt,4,5,90,140,schietschijf,kogel,holster,pistool,gun.png,3,unstructured,c,NO,660,1,,0.640011128
Exp_EEG4.txt,4,5,91,55,aarde,draait,om,zon,sun.png,1,structured,c,SVP,510,1,,0.436552643
Exp_EEG4.txt,4,5,92,63,familie,speelde,bij,boom,tree.png,9,structured,uc,SVP,670,1,,0.573333333
Exp_EEG4.txt,4,5,93,26,lapt,regels,aan,laars,boot02b.png,1,structured,c,VOP,411,1,,0.306666667
Exp_EEG4.txt,4,5,94,78,jongen ,stond,voor,kooi,cage.png,9,structured,uc,SVP,730,1,,0.677821802
Exp_EEG4.txt,4,5,95,99,dier,beweegt,met,staart,tail.png,9,structured,uc,SVP,700,1,,0.536398011
Exp_EEG4.txt,4,5,96,79,verborg,pen,onder,krant,newspaper.png,9,structured,uc,VOP,660,1,,0.653333333
Exp_EEG4.txt,4,5,97,42,leraar,schreef,op,schoolbord,schoolbord.png,1,structured,c,SVP,750,1,,0.591030381
Exp_EEG4.txt,4,5,98,68,moeder,liep,naar,deur,deur.png,9,structured,uc,SVP,670,1,,0.568423883
Exp_EEG4.txt,4,5,99,86,beschadigde,voet,van,microscoop,microscope.png,9,structured,uc,VOP,790,1,,0.758695244
Exp_EEG4.txt,4,5,100,117,popcorn,filmfestival,kaartje,bioscoop,bioscoop.png,3,unstructured,c,NO,360,1,,0.333333333
Exp_EEG4.txt,4,5,101,199,decoratie,schoorsteen,bestuurder,raket,rocket.png,7,unstructured,uc,NO,590,1,,0.573333333
Exp_EEG4.txt,4,5,102,45,zoeken,schelpen,op,strand,beach.png,1,structured,c,VOP,670,1,,0.518718022
Exp_EEG4.txt,4,5,103,207,hertog,inktvis,wattenstaafje,supermarkt,supermarket.png,7,unstructured,uc,NO,770,1,,0.664501501
Exp_EEG4.txt,4,5,104,192,warmte,asbak,pedaal,olifant,elephant.png,7,unstructured,uc,NO,640,1,,0.626666667
Exp_EEG4.txt,4,5,105,155,salade,komkommer,sla,tomaat,tomato01.png,3,unstructured,c,NO,570,1,,0.532630261
Exp_EEG4.txt,4,5,106,69,dolfijn,luisterde,naar,fluitje,whistle.png,9,structured,uc,SVP,819,1,,0.762756731
Exp_EEG4.txt,4,5,107,130,waterlelie,vijver,amfibie,kikker,frog.png,3,unstructured,c,NO,720,1,,0.670153125
Exp_EEG4.txt,4,5,108,175,software,vrucht,nek,bruid,bruid.png,7,unstructured,uc,NO,770,1,,0.656966001
Exp_EEG4.txt,4,5,109,209,piloot,kunstmest,strijkstok,tapijt,carpet.png,7,unstructured,uc,NO,1079,1,,1.029973223
Exp_EEG4.txt,4,5,110,95,bewaarde,bonnetje,van,ring,ring01.png,9,structured,uc,VOP,610,1,,0.586666667
Exp_EEG4.txt,4,6,111,133,prins,hertog,troon,koning,king.png,3,unstructured,c,NO,870,1,,0.824630864
Exp_EEG4.txt,4,6,112,110,arbeiders,zaten,in,zon,sun.png,9,structured,uc,SVP,680,1,,0.602333631
Exp_EEG4.txt,4,6,113,191,gangpad,zoomlens,bladmuziek,octopus,octopus.png,7,unstructured,uc,NO,950,1,,0.924476231
Exp_EEG4.txt,4,6,114,208,kin,vee,holster,taart,cake.png,7,unstructured,uc,NO,680,1,,0.645662752
Exp_EEG4.txt,4,6,115,19,kocht,halsband,voor,hond,dog.png,1,structured,c,VOP,580,1,,0.566887653
Exp_EEG4.txt,4,6,116,2,kind,slaapt,in,bed,bed.png,1,structured,c,SVP,720,1,,0.628707879
Exp_EEG4.txt,4,6,117,54,waste,handen,met,zeep,soap03b.png,1,structured,c,VOP,820,1,,0.690875749
Exp_EEG4.txt,4,6,118,135,draad,kleermaker,vingerhoed,naald,needle.png,3,unstructured,c,NO,740,1,,0.613333333
Exp_EEG4.txt,4,6,119,103,brak,pols,in,tuin,garden.png,9,structured,uc,VOP,800,1,,0.707830623
Exp_EEG4.txt,4,6,120,148,aansteker,pijp,asbak,sigaret,cigarrette.png,3,unstructured,c,NO,690,1,,0.61363688
Exp_EEG4.txt,4,6,121,20,kind,likt,aan,ijsje,ijsje.png,1,structured,c,SVP,720,1,,0.666385376
Exp_EEG4.txt,4,6,122,165,dokter,verpleegster,ambulance,ziekenhuis,ziekenhuis.png,3,unstructured,c,NO,450,1,,0.349423448
Exp_EEG4.txt,4,6,123,53,konijn,knaagt,op,wortel,carrot02.png,1,structured,c,SVP,530,1,,0.496199539
Exp_EEG4.txt,4,6,124,65,onderzoeker,gooide,met,bril,glasses01b.png,9,structured,uc,SVP,670,1,,0.666666667
Exp_EEG4.txt,4,6,125,107,raadpleegde,buurvrouw,over,wond,wound.png,9,structured,uc,VOP,830,1,,0.762462993
Exp_EEG4.txt,4,6,126,132,kleding,vakantie,bagage,koffer,suitcase.png,3,unstructured,c,NO,740,1,,0.734204871
Exp_EEG4.txt,4,6,127,177,pijp,lauwerkrans,farao,clown,clown.png,7,unstructured,uc,NO,750,1,,0.72
Exp_EEG4.txt,4,6,128,88,jongen,sprong,over,muur,wall2.png,9,structured,uc,SVP,650,1,,0.64
Exp_EEG4.txt,4,6,129,129,cadeau,elfen,rendier,kerstman,santa.png,3,unstructured,c,NO,320,1,,0.306666667
Exp_EEG4.txt,4,6,130,84,wetenschapper,sprak,over,maan,moon.png,9,structured,uc,SVP,679,1,,0.6
Exp_EEG4.txt,4,6,131,188,jurk,popcorn,boer,koning,king.png,7,unstructured,uc,NO,660,1,,0.64
Exp_EEG4.txt,4,6,132,31,analyseert,bloedcellen,onder,microscoop,microscope.png,1,structured,c,VOP,340,1,,0.32
Exp_EEG4.txt,4,7,133,202,wol,larve,pink,schoen,shoe.png,7,unstructured,uc,NO,690,1,,0.519443137
Exp_EEG4.txt,4,7,134,134,beltoon,tekstbericht,batterij,mobieltje,mobile.png,3,unstructured,c,NO,460,1,,0.433120344
Exp_EEG4.txt,4,7,135,160,piloot,helikopter,stewardess,vliegtuig,plane.png,3,unstructured,c,NO,630,1,,0.626824004
Exp_EEG4.txt,4,7,136,57,doos,staat,bij,bed,bed.png,9,structured,uc,SVP,540,1,,0.494952764
Exp_EEG4.txt,4,7,137,13,vreemdeling,klopt,op,deur,deur.png,1,structured,c,SVP,590,1,,0.533333333
Exp_EEG4.txt,4,7,138,14,gymleraar,blaast,op,fluitje,whistle.png,1,structured,c,SVP,710,1,,0.689129043
Exp_EEG4.txt,4,7,139,137,dierentuin,zebra,slurf,olifant,elephant.png,3,unstructured,c,NO,600,1,,0.586666667
Exp_EEG4.txt,4,7,140,111,zomer,vrucht,beschuit,aardbei,strawberry.png,3,unstructured,c,NO,710,1,,0.693333333
Exp_EEG4.txt,4,7,141,214,stuifmeel,egypte,trede,viool,violin.png,7,unstructured,uc,NO,700,1,,0.693333333
Exp_EEG4.txt,4,7,142,51,eend,zwemt,in,water,water.png,1,structured,c,SVP,430,1,,0.381323679
Exp_EEG4.txt,4,7,143,108,peuter,proefde,van,wortel,carrot02.png,9,structured,uc,SVP,590,1,,0.549612728
Exp_EEG4.txt,4,7,144,195,toetsenbord,vakantie,horens,pistool,gun.png,7,unstructured,uc,NO,599,1,,0.586666667
Exp_EEG4.txt,4,7,145,87,vlek,lijkt,op,muis,mouse.png,9,structured,uc,SVP,620,1,,0.546666667
Exp_EEG4.txt,4,7,146,212,kleermaker,landschap,gum,ui,onion.png,7,unstructured,uc,NO,620,1,,0.613333333
Exp_EEG4.txt,4,7,147,6,hakte,hout,met,bijl,axe.png,1,structured,c,VOP,660,1,,0.622002502
Exp_EEG4.txt,4,7,148,173,vijver,piloot,franjes,boterham,boterham.png,7,unstructured,uc,NO,720,1,,0.706666667
Exp_EEG4.txt,4,7,149,21,hangt,jas,aan,kapstok,coatrack.png,1,structured,c,VOP,650,1,,0.64
Exp_EEG4.txt,4,7,150,92,meisje,droomde,van,pop,doll.png,9,structured,uc,SVP,720,1,,0.706666667
Exp_EEG4.txt,4,7,151,205,atleet,oorbel,kudde,slang ,snake.png,7,unstructured,uc,NO,680,1,,0.555236759
Exp_EEG4.txt,4,7,152,89,vogels,vlogen,over,nest,nest.png,9,structured,uc,SVP,870,1,,0.773333333
Exp_EEG4.txt,4,7,153,147,sok,zolen,veters,schoen,shoe.png,3,unstructured,c,NO,700,1,,0.521327012
Exp_EEG4.txt,4,7,154,119,benen,achterzak,gulp,broek,pants2.png,3,unstructured,c,NO,440,1,,0.386666667
Exp_EEG4.txt,4,8,155,215,prins,apparaat,trofee,vliegtuig,plane.png,7,unstructured,uc,NO,710,1,,0.68
Exp_EEG4.txt,4,8,156,41,man,knipte,met,schaar,scissors08.png,1,structured,c,SVP,500,1,,0.325404027
Exp_EEG4.txt,4,8,157,120,trouwerij,sluier,jurk,bruid,bruid.png,3,unstructured,c,NO,340,1,,0.32
Exp_EEG4.txt,4,8,158,169,salade,kassa,amfibie,baard,beard.png,7,unstructured,uc,NO,630,1,,0.542049635
Exp_EEG4.txt,4,8,159,211,badge,komkommer,weide,trap,stairs.png,7,unstructured,uc,NO,580,1,,0.54016576
Exp_EEG4.txt,4,8,160,98,vulde,kom,met,slagroom,slagroom.png,9,structured,uc,VOP,731,1,,0.628707879
Exp_EEG4.txt,4,8,161,1,jongens,spelen,met,bal,ball02.png,1,structured,c,SVP,409,1,,0.351235739
Exp_EEG4.txt,4,8,162,181,leuning,slurf,vlam,fiets,bike.png,7,unstructured,uc,NO,600,1,,0.586666667
Exp_EEG4.txt,4,8,163,46,bewaart,lippenstift,in,tas,tas.png,1,structured,c,VOP,490,1,,0.46457996
Exp_EEG4.txt,4,8,164,213,nectar,snor,rodeo,vinger,finger.png,7,unstructured,uc,NO,700,1,,0.693333333
Exp_EEG4.txt,4,8,165,196,dooier,ruimtestation,foto,plantje,plant02b.png,7,unstructured,uc,NO,770,1,,0.693333333
Exp_EEG4.txt,4,8,166,75,vrouw,koos,voor,ijsje,ijsje.png,9,structured,uc,SVP,980,1,,0.954087663
Exp_EEG4.txt,4,8,167,50,zet,bloemen,in,vaas,vase01.png,1,structured,c,VOP,750,1,,0.724220528
Exp_EEG4.txt,4,8,168,217,radiateur,sok,tribune,vulkaan,volcano.png,7,unstructured,uc,NO,800,1,,0.73797262
Exp_EEG4.txt,4,8,169,118,bakker,kaas,hagelslag,boterham,boterham.png,3,unstructured,c,NO,770,1,,0.76
Exp_EEG4.txt,4,8,170,37,meisjes,spelen,met,pop,doll.png,1,structured,c,SVP,750,1,,0.733333333
Exp_EEG4.txt,4,8,171,73,man,zat,bij,hengel,fishingrod.png,9,structured,uc,SVP,640,1,,0.64
Exp_EEG4.txt,4,8,172,59,sloeg,kakkerlak,met,bezem,broom01.png,9,structured,uc,VOP,730,1,,0.72
Exp_EEG4.txt,4,8,173,38,telde,stukjes,van,puzzel,puzzle.png,1,structured,c,VOP,999,1,,0.973333333
Exp_EEG4.txt,4,8,174,72,doorzocht,vak,voor,helm,helmet.png,9,structured,uc,VOP,610,1,,0.568441168
Exp_EEG4.txt,4,8,175,23,hamster,breekt,uit,kooi,cage.png,1,structured,c,SVP,430,1,,0.389455772
Exp_EEG4.txt,4,8,176,5,leest,evangelie,uit,bijbel,bible.png,1,structured,c,VOP,670,1,,0.611753005
Exp_EEG4.txt,4,9,177,124,koelkast,ijsblokje,apparaat,diepvries,freezer01.png,3,unstructured,c,NO,920,1,,0.893333333
Exp_EEG4.txt,4,9,178,170,waterlelie,sjalot,zolen,bier,beer.png,7,unstructured,uc,NO,749,1,,0.64
Exp_EEG4.txt,4,9,179,166,kogel,ufo,ijsblokje,aardbei,strawberry.png,7,unstructured,uc,NO,650,1,,0.64
Exp_EEG4.txt,4,9,180,28,kreeg,tand,door,lip,lip.png,1,structured,c,VOP,741,1,,0.64
Exp_EEG4.txt,4,9,181,10,opa,leest,met,bril,glasses01b.png,1,structured,c,SVP,570,1,,0.521327012
Exp_EEG4.txt,4,9,182,126,handrem,pedaal,zadel,fiets,bike.png,3,unstructured,c,NO,590,1,,0.573333333
Exp_EEG4.txt,4,9,183,138,koptelefoon,wattenstaafje,trommelvlies,oor,ear.png,3,unstructured,c,NO,660,1,,0.64
Exp_EEG4.txt,4,9,184,158,handpalm,duim,pink,vinger,finger.png,3,unstructured,c,NO,460,1,,0.44
Exp_EEG4.txt,4,9,185,36,boogschieter,schoot,met,pijl,arrow02.png,1,structured,c,SVP,420,1,,0.413333333
Exp_EEG4.txt,4,9,186,141,gieter,kunstmest,grond,plantje,plant02b.png,3,unstructured,c,NO,650,1,,0.6
Exp_EEG4.txt,4,9,187,161,larve,rups,cocon,vlinder,butterfly.png,3,unstructured,c,NO,729,1,,0.703762093
Exp_EEG4.txt,4,9,188,105,vergat,sleutels,in,vaas,vase01.png,9,structured,uc,VOP,750,1,,0.746707642
Exp_EEG4.txt,4,9,189,178,schietschijf,wenkbrauw,honing,computer,computer.png,7,unstructured,uc,NO,750,1,,0.734204871
Exp_EEG4.txt,4,9,190,35,kok,roert,in,pan,pan.png,1,structured,c,SVP,599,1,,0.586666667
Exp_EEG4.txt,4,9,191,218,buffel,koptelefoon,filmfestival,wc,wc2.png,7,unstructured,uc,NO,720,1,,0.693333333
Exp_EEG4.txt,4,9,192,4,veegt,vloer,met,bezem,broom01.png,1,structured,c,VOP,590,1,,0.536398011
Exp_EEG4.txt,4,9,193,113,bestuurder,snelweg,benzine,auto,car.png,3,unstructured,c,NO,420,1,,0.413333333
Exp_EEG4.txt,4,9,194,171,winkelwagen,zadel,snaar,bijen,bijen.png,7,unstructured,uc,NO,740,1,,0.72
Exp_EEG4.txt,4,9,195,102,klanten,klaagden,over,tent,tent.png,9,structured,uc,SVP,620,1,,0.591030381
Exp_EEG4.txt,4,9,196,30,sneed,vlees,met,mes,knife01.png,1,structured,c,VOP,650,1,,0.6
Exp_EEG4.txt,4,9,197,17,reed,scooter,zonder,helm,helmet.png,1,structured,c,VOP,641,1,,0.64
Exp_EEG4.txt,4,9,198,115,flesopener,vaasje,gerst,bier,beer.png,3,unstructured,c,NO,700,1,,0.64
Exp_EEG4.txt,4,10,199,164,kameel,cactus,oase,woestijn,desert.png,3,unstructured,c,NO,341,1,,0.27642328
Exp_EEG4.txt,4,10,200,197,batterij,lucifer,tong,politieagent,policeman.png,7,unstructured,uc,NO,620,1,,0.6
Exp_EEG4.txt,4,10,201,40,deed,aanzoek,met,ring,ring01.png,1,structured,c,VOP,620,1,,0.586666667
Exp_EEG4.txt,4,10,202,179,troon,beschuit,helikopter,diepvries,freezer01.png,7,unstructured,uc,NO,720,1,,0.584962255
Exp_EEG4.txt,4,10,203,32,kat,jaagt,op,muis,mouse.png,1,structured,c,SVP,450,1,,0.426666667
Exp_EEG4.txt,4,10,204,34,vogels,broeden,in,nest,nest.png,1,structured,c,SVP,610,1,,0.540356258
Exp_EEG4.txt,4,10,205,91,kerel,sprong,naast,pijl,arrow02.png,9,structured,uc,SVP,650,1,,0.64
Exp_EEG4.txt,4,10,206,146,museum,penseel,landschap,schilderij,schilderij.png,3,unstructured,c,NO,699,1,,0.568423883
Exp_EEG4.txt,4,10,207,9,padvinder,liep,door,bos,forest.png,1,structured,c,SVP,640,1,,0.579727132
Exp_EEG4.txt,4,10,208,22,priester,preekt,in,kerk,church.png,1,structured,c,SVP,650,1,,0.596682006
Exp_EEG4.txt,4,10,209,62,huisgenoot,struikelde,over,boek,book.png,9,structured,uc,SVP,860,1,,0.846342743
Exp_EEG4.txt,4,10,210,70,vond,pluisje,in,glas,glass.png,9,structured,uc,VOP,710,1,,0.638615764
Exp_EEG4.txt,4,10,211,162,tsunami,lava,krater,vulkaan,volcano.png,3,unstructured,c,NO,440,1,,0.378152523
Exp_EEG4.txt,4,10,212,167,aansteker,elfen,dierentuin,alien,alien.png,7,unstructured,uc,NO,750,1,,0.733333333
Exp_EEG4.txt,4,10,213,189,zebrapad,vingerhoed,heelal,mobieltje,mobile.png,7,unstructured,uc,NO,899,1,,0.72
Exp_EEG4.txt,4,10,214,49,zag,serie,op,TV,television.png,1,structured,c,VOP,1220,0,laptop scherm,1.386025571
Exp_EEG4.txt,4,10,215,47,kampeerders,sliepen,in,tent,tent.png,1,structured,c,SVP,590,1,,0.553352884
Exp_EEG4.txt,4,10,216,85,vroegen,gastheer,om,mes,knife01.png,9,structured,uc,VOP,710,1,,0.64
Exp_EEG4.txt,4,10,217,194,herder,ticket,cadeau,piramide,pyramid.png,7,unstructured,uc,NO,860,1,,0.850029481
Exp_EEG4.txt,4,10,218,182,omelet,handrem,sonate,gras,grass.png,7,unstructured,uc,NO,710,1,,0.705759893
Exp_EEG4.txt,4,10,219,163,wastafel,toiletpapier,ontstopper,wc,wc2.png,3,unstructured,c,NO,640,1,,0.600403352
Exp_EEG4.txt,4,10,220,33,spiegel,hangt,aan,muur,wall2.png,1,structured,c,SVP,350,1,,0.306666667
Exp_EEG5.txt,5,1,1,84,wetenschapper,sprak,over,maan,moon.png,9,structured,uc,SVP,869,1,,0.746666667
Exp_EEG5.txt,5,1,2,196,dooier,ruimtestation,foto,plantje,plant02b.png,7,unstructured,uc,NO,750,1,,0.699034617
Exp_EEG5.txt,5,1,3,125,dooier,kip,omelet,ei,egg.png,3,unstructured,c,NO,640,1,,0.613333333
Exp_EEG5.txt,5,1,4,200,trouwerij,verkeer,luier,schaap,sheep.png,7,unstructured,uc,NO,630,1,,0.562772259
Exp_EEG5.txt,5,1,5,87,vlek,lijkt,op,muis,mouse.png,9,structured,uc,SVP,740,2,muisje,0.666666667
Exp_EEG5.txt,5,1,6,90,kok,wijst,naar,pan,pan.png,9,structured,uc,SVP,929,1,,0.906666667
Exp_EEG5.txt,5,1,7,71,zag,reclame,over,hamer,hammer02b.png,9,structured,uc,VOP,721,1,,0.643664813
Exp_EEG5.txt,5,1,8,117,popcorn,filmfestival,kaartje,bioscoop,bioscoop.png,3,unstructured,c,NO,860,1,,0.773333333
Exp_EEG5.txt,5,1,9,103,brak,pols,in,tuin,garden.png,9,structured,uc,VOP,820,1,,0.786666667
Exp_EEG5.txt,5,1,10,89,vogels,vlogen,over,nest,nest.png,9,structured,uc,SVP,960,1,nestje,0.906666667
Exp_EEG5.txt,5,1,11,82,krabde,neus,met,lepel,spoon02b.png,9,structured,uc,VOP,710,1,,0.681456375
Exp_EEG5.txt,5,1,12,214,stuifmeel,egypte,trede,viool,violin.png,7,unstructured,uc,NO,620,0,mistake,0.899985858
Exp_EEG5.txt,5,1,13,59,sloeg,kakkerlak,met,bezem,broom01.png,9,structured,uc,VOP,800,1,,0.773333333
Exp_EEG5.txt,5,1,14,122,circus,feestneus,ballon,clown,clown.png,3,unstructured,c,NO,710,1,,0.666666667
Exp_EEG5.txt,5,1,15,212,kleermaker,landschap,gum,ui,onion.png,7,unstructured,uc,NO,0,1,,0.666666667
Exp_EEG5.txt,5,1,16,167,aansteker,elfen,dierentuin,alien,alien.png,7,unstructured,uc,NO,1501,1,,1.48
Exp_EEG5.txt,5,1,17,33,spiegel,hangt,aan,muur,wall2.png,1,structured,c,SVP,1090,1,,1.066666667
Exp_EEG5.txt,5,1,18,176,beltoon,sla,achterzak,camera,camera.png,7,unstructured,uc,NO,0,1,,0.975516781
Exp_EEG5.txt,5,1,19,220,tijd,ambassadeur,winter,ziekenhuis,ziekenhuis.png,7,unstructured,uc,NO,1090,1,,0.853333333
Exp_EEG5.txt,5,1,20,202,wol,larve,pink,schoen,shoe.png,7,unstructured,uc,NO,0,1,,0.546666667
Exp_EEG5.txt,5,1,21,76,legde,armband,bij,kapstok,coatrack.png,9,structured,uc,VOP,1000,1,,0.946666667
Exp_EEG5.txt,5,1,22,40,deed,aanzoek,met,ring,ring01.png,1,structured,c,VOP,780,1,,0.653333333
Exp_EEG5.txt,5,2,23,195,toetsenbord,vakantie,horens,pistool,gun.png,7,unstructured,uc,NO,851,1,,0.773333333
Exp_EEG5.txt,5,2,24,30,sneed,vlees,met,mes,knife01.png,1,structured,c,VOP,640,1,,0.586666667
Exp_EEG5.txt,5,2,25,179,troon,beschuit,helikopter,diepvries,freezer01.png,7,unstructured,uc,NO,1030,0,koelkast,1.0017151
Exp_EEG5.txt,5,2,26,15,schonk,wijn,in,glas,glass.png,1,structured,c,VOP,880,1,,0.798256616
Exp_EEG5.txt,5,2,27,67,opa,las,over,brug,bridge.png,9,structured,uc,SVP,850,1,,0.805792115
Exp_EEG5.txt,5,2,28,197,batterij,lucifer,tong,politieagent,policeman.png,7,unstructured,uc,NO,1000,1,,0.92
Exp_EEG5.txt,5,2,29,43,drinkt,chocomelk,met,slagroom,slagroom.png,1,structured,c,VOP,760,1,,0.656966001
Exp_EEG5.txt,5,2,30,27,at,soep,met,lepel,spoon02b.png,1,structured,c,VOP,660,1,,0.626666667
Exp_EEG5.txt,5,2,31,96,leerling,zeurde,om,schaar,scissors08.png,9,structured,uc,SVP,670,1,,0.611753005
Exp_EEG5.txt,5,2,32,216,penseel,oase,glazuur,vlinder,butterfly.png,7,unstructured,uc,NO,699,1,,0.60610138
Exp_EEG5.txt,5,2,33,22,priester,preekt,in,kerk,church.png,1,structured,c,SVP,650,1,,0.626666667
Exp_EEG5.txt,5,2,34,215,prins,apparaat,trofee,vliegtuig,plane.png,7,unstructured,uc,NO,730,1,,0.632475628
Exp_EEG5.txt,5,2,35,163,wastafel,toiletpapier,ontstopper,wc,wc2.png,3,unstructured,c,NO,750,1,,0.72
Exp_EEG5.txt,5,2,36,158,handpalm,duim,pink,vinger,finger.png,3,unstructured,c,NO,730,1,,0.690615475
Exp_EEG5.txt,5,2,37,20,kind,likt,aan,ijsje,ijsje.png,1,structured,c,SVP,620,1,,0.592121946
Exp_EEG5.txt,5,2,38,162,tsunami,lava,krater,vulkaan,volcano.png,3,unstructured,c,NO,770,1,,0.688991874
Exp_EEG5.txt,5,2,39,181,leuning,slurf,vlam,fiets,bike.png,7,unstructured,uc,NO,711,1,,0.636243378
Exp_EEG5.txt,5,2,40,116,stuifmeel,honing,nectar,bijen,bijen.png,3,unstructured,c,NO,770,1,,0.698474319
Exp_EEG5.txt,5,2,41,55,aarde,draait,om,zon,sun.png,1,structured,c,SVP,810,1,,0.724547147
Exp_EEG5.txt,5,2,42,206,lava,kaneel,draad,stier,bull.png,7,unstructured,uc,NO,701,1,,0.658849876
Exp_EEG5.txt,5,2,43,144,ruimtestation,astronaut,lancering,raket,rocket.png,3,unstructured,c,NO,2810,0,hesitated,2.746666667
Exp_EEG5.txt,5,2,44,194,herder,ticket,cadeau,piramide,pyramid.png,7,unstructured,uc,NO,2640,1,,2.626666667
Exp_EEG5.txt,5,3,45,54,waste,handen,met,zeep,soap03b.png,1,structured,c,VOP,580,1,,0.545135178
Exp_EEG5.txt,5,3,46,178,schietschijf,wenkbrauw,honing,computer,computer.png,7,unstructured,uc,NO,980,1,,0.949840729
Exp_EEG5.txt,5,3,47,198,dief,klavier,gieter,potlood,pencil01.png,7,unstructured,uc,NO,800,1,,0.773333333
Exp_EEG5.txt,5,3,48,104,vroeg,prijs,van,TV,television.png,9,structured,uc,VOP,1170,1,,1.128638242
Exp_EEG5.txt,5,3,49,14,gymleraar,blaast,op,fluitje,whistle.png,1,structured,c,SVP,730,1,,0.640011128
Exp_EEG5.txt,5,3,50,66,nam,mand,met,brood,brood.png,9,structured,uc,VOP,710,1,,0.64
Exp_EEG5.txt,5,3,51,8,blad,valt,van,boom,tree.png,1,structured,c,SVP,720,1,,0.661608303
Exp_EEG5.txt,5,3,52,205,atleet,oorbel,kudde,slang ,snake.png,7,unstructured,uc,NO,760,1,,0.658849876
Exp_EEG5.txt,5,3,53,78,jongen ,stond,voor,kooi,cage.png,9,structured,uc,SVP,710,1,,0.659585963
Exp_EEG5.txt,5,3,54,156,zolder,leuning,trede,trap,stairs.png,3,unstructured,c,NO,730,1,,0.706666667
Exp_EEG5.txt,5,3,55,113,bestuurder,snelweg,benzine,auto,car.png,3,unstructured,c,NO,760,1,,0.746666667
Exp_EEG5.txt,5,3,56,193,toiletpapier,programmeur,capuchon,oor,ear.png,7,unstructured,uc,NO,670,1,,0.653333333
Exp_EEG5.txt,5,3,57,107,raadpleegde,buurvrouw,over,wond,wound.png,9,structured,uc,VOP,1300,1,,1.226666667
Exp_EEG5.txt,5,3,58,35,kok,roert,in,pan,pan.png,1,structured,c,SVP,690,1,,0.666666667
Exp_EEG5.txt,5,3,59,120,trouwerij,sluier,jurk,bruid,bruid.png,3,unstructured,c,NO,590,1,,0.56
Exp_EEG5.txt,5,3,60,184,vloer,zebra,navel,kerstman,santa.png,7,unstructured,uc,NO,750,1,,0.72
Exp_EEG5.txt,5,3,61,128,klok,tijd,bandje,horloge,watch.png,3,unstructured,c,NO,700,1,,0.64
Exp_EEG5.txt,5,3,62,42,leraar,schreef,op,schoolbord,schoolbord.png,1,structured,c,SVP,700,1,,0.645662752
Exp_EEG5.txt,5,3,63,210,vergif,cocon,leger,tomaat,tomato01.png,7,unstructured,uc,NO,910,1,,0.873559499
Exp_EEG5.txt,5,3,64,139,farao,egypte,graf,piramide,pyramid.png,3,unstructured,c,NO,530,1,,0.52
Exp_EEG5.txt,5,3,65,124,koelkast,ijsblokje,apparaat,diepvries,freezer01.png,3,unstructured,c,NO,800,2,freezekast? 'vrieskast' a synonym for 'diepvries' ,0.786666667
Exp_EEG5.txt,5,3,66,53,konijn,knaagt,op,wortel,carrot02.png,1,structured,c,SVP,410,1,,0.391124957
Exp_EEG5.txt,5,4,67,204,partij,benen,visum,sjaal,scarf.png,7,unstructured,uc,NO,760,1,,0.656395306
Exp_EEG5.txt,5,4,68,199,decoratie,schoorsteen,bestuurder,raket,rocket.png,7,unstructured,uc,NO,780,1,,0.741126554
Exp_EEG5.txt,5,4,69,219,gazon,krater,statief,woestijn,desert.png,7,unstructured,uc,NO,1680,1,,1.626666667
Exp_EEG5.txt,5,4,70,93,verloor,pakket,van,puzzel,puzzle.png,9,structured,uc,VOP,900,1,,0.88
Exp_EEG5.txt,5,4,71,142,patrouille,badge,dief,politieagent,policeman.png,3,unstructured,c,NO,510,1,,0.493333333
Exp_EEG5.txt,5,4,72,166,kogel,ufo,ijsblokje,aardbei,strawberry.png,7,unstructured,uc,NO,750,1,,0.733333333
Exp_EEG5.txt,5,4,73,189,zebrapad,vingerhoed,heelal,mobieltje,mobile.png,7,unstructured,uc,NO,750,1,,0.706666667
Exp_EEG5.txt,5,4,74,44,puppy,kwispelt,met,staart,tail.png,1,structured,c,SVP,1489,1,,1.112863717
Exp_EEG5.txt,5,4,75,188,jurk,popcorn,boer,koning,king.png,7,unstructured,uc,NO,920,1,,0.882706444
Exp_EEG5.txt,5,4,76,115,flesopener,vaasje,gerst,bier,beer.png,3,unstructured,c,NO,700,1,,0.68
Exp_EEG5.txt,5,4,77,57,doos,staat,bij,bed,bed.png,9,structured,uc,SVP,660,1,,0.653333333
Exp_EEG5.txt,5,4,78,3,bereikten,top,van,berg,berg.png,1,structured,c,VOP,780,1,,0.76
Exp_EEG5.txt,5,4,79,91,kerel,sprong,naast,pijl,arrow02.png,9,structured,uc,SVP,780,1,,0.773333333
Exp_EEG5.txt,5,4,80,85,vroegen,gastheer,om,mes,knife01.png,9,structured,uc,VOP,689,1,,0.653333333
Exp_EEG5.txt,5,4,81,101,spaarde,geld,voor,tas,tas.png,9,structured,uc,VOP,590,1,,0.56
Exp_EEG5.txt,5,4,82,5,leest,evangelie,uit,bijbel,bible.png,1,structured,c,VOP,550,1,,0.52
Exp_EEG5.txt,5,4,83,155,salade,komkommer,sla,tomaat,tomato01.png,3,unstructured,c,NO,710,1,,0.683171447
Exp_EEG5.txt,5,4,84,79,verborg,pen,onder,krant,newspaper.png,9,structured,uc,VOP,760,1,,0.736001107
Exp_EEG5.txt,5,4,85,177,pijp,lauwerkrans,farao,clown,clown.png,7,unstructured,uc,NO,690,1,,0.635789223
Exp_EEG5.txt,5,4,86,45,zoeken,schelpen,op,strand,beach.png,1,structured,c,VOP,1020,1,,0.980992477
Exp_EEG5.txt,5,4,87,26,lapt,regels,aan,laars,boot02b.png,1,structured,c,VOP,531,1,,0.493333333
Exp_EEG5.txt,5,4,88,175,software,vrucht,nek,bruid,bruid.png,7,unstructured,uc,NO,660,1,,0.64
Exp_EEG5.txt,5,5,89,61,greep,handvat,van,bijl,axe.png,9,structured,uc,VOP,1200,1,,1.112863717
Exp_EEG5.txt,5,5,90,88,jongen,sprong,over,muur,wall2.png,9,structured,uc,SVP,811,1,,0.780844444
Exp_EEG5.txt,5,5,91,39,hing,gordijn,voor,raam,window01.png,1,structured,c,VOP,470,1,,0.466666667
Exp_EEG5.txt,5,5,92,48,bouwde,hek,rond,tuin,garden.png,1,structured,c,VOP,500,1,,0.466666667
Exp_EEG5.txt,5,5,93,149,winter,nek,wol,sjaal,scarf.png,3,unstructured,c,NO,630,1,,0.55690861
Exp_EEG5.txt,5,5,94,137,dierentuin,zebra,slurf,olifant,elephant.png,3,unstructured,c,NO,370,1,,0.346666667
Exp_EEG5.txt,5,5,95,152,kassa,gangpad,winkelwagen,supermarkt,supermarket.png,3,unstructured,c,NO,640,1,,0.573333333
Exp_EEG5.txt,5,5,96,47,kampeerders,sliepen,in,tent,tent.png,1,structured,c,SVP,470,1,,0.44
Exp_EEG5.txt,5,5,97,138,koptelefoon,wattenstaafje,trommelvlies,oor,ear.png,3,unstructured,c,NO,600,1,,0.586666667
Exp_EEG5.txt,5,5,98,209,piloot,kunstmest,strijkstok,tapijt,carpet.png,7,unstructured,uc,NO,720,1,,0.693333333
Exp_EEG5.txt,5,5,99,36,boogschieter,schoot,met,pijl,arrow02.png,1,structured,c,SVP,490,1,,0.48
Exp_EEG5.txt,5,5,100,203,passagier,koelkast,veters,sigaret,cigarrette.png,7,unstructured,uc,NO,851,1,,0.8
Exp_EEG5.txt,5,5,101,58,hield,presentatie,over,berg,berg.png,9,structured,uc,VOP,880,1,,0.853333333
Exp_EEG5.txt,5,5,102,60,bestelde,exemplaar,van ,bijbel,bible.png,9,structured,uc,VOP,630,1,,0.613333333
Exp_EEG5.txt,5,5,103,185,vaasje,ballon,tsunami,kikker,frog.png,7,unstructured,uc,NO,650,1,,0.625490707
Exp_EEG5.txt,5,5,104,24,las,artikel,in,krant,newspaper.png,1,structured,c,VOP,640,1,,0.553352884
Exp_EEG5.txt,5,5,105,114,snor,kin,sik,baard,beard.png,3,unstructured,c,NO,780,1,,0.76
Exp_EEG5.txt,5,5,106,111,zomer,vrucht,beschuit,aardbei,strawberry.png,3,unstructured,c,NO,470,1,,0.453333333
Exp_EEG5.txt,5,5,107,118,bakker,kaas,hagelslag,boterham,boterham.png,3,unstructured,c,NO,640,1,,0.626666667
Exp_EEG5.txt,5,5,108,16,slaat,spijker,met,hamer,hammer02b.png,1,structured,c,VOP,610,1,,0.578420211
Exp_EEG5.txt,5,5,109,170,waterlelie,sjalot,zolen,bier,beer.png,7,unstructured,uc,NO,610,1,,0.6
Exp_EEG5.txt,5,5,110,10,opa,leest,met,bril,glasses01b.png,1,structured,c,SVP,610,1,,0.586666667
Exp_EEG5.txt,5,6,111,147,sok,zolen,veters,schoen,shoe.png,3,unstructured,c,NO,560,1,,0.404526771
Exp_EEG5.txt,5,6,112,186,sluier,bagage,druppels ,koe,cow.png,7,unstructured,uc,NO,680,1,,0.654392226
Exp_EEG5.txt,5,6,113,92,meisje,droomde,van,pop,doll.png,9,structured,uc,SVP,781,1,,0.773333333
Exp_EEG5.txt,5,6,114,25,sloot,wijnfles,met,kurk,cork02.png,1,structured,c,VOP,1050,1,,1.030990942
Exp_EEG5.txt,5,6,115,207,hertog,inktvis,wattenstaafje,supermarkt,supermarket.png,7,unstructured,uc,NO,770,1,,0.687107999
Exp_EEG5.txt,5,6,116,217,radiateur,sok,tribune,vulkaan,volcano.png,7,unstructured,uc,NO,750,1,,0.733333333
Exp_EEG5.txt,5,6,117,72,doorzocht,vak,voor,helm,helmet.png,9,structured,uc,VOP,630,1,,0.6
Exp_EEG5.txt,5,6,118,83,had,pijn,aan,lip,lip.png,9,structured,uc,VOP,660,1,,0.636084155
Exp_EEG5.txt,5,6,119,81,vond,sok,in,laars,boot02b.png,9,structured,uc,VOP,740,1,,0.68
Exp_EEG5.txt,5,6,120,187,benzine,publiek,oven,koffer,suitcase.png,7,unstructured,uc,NO,720,1,,0.6795725
Exp_EEG5.txt,5,6,121,63,familie,speelde,bij,boom,tree.png,9,structured,uc,SVP,650,1,,0.587262632
Exp_EEG5.txt,5,6,122,164,kameel,cactus,oase,woestijn,desert.png,3,unstructured,c,NO,430,1,,0.386666667
Exp_EEG5.txt,5,6,123,130,waterlelie,vijver,amfibie,kikker,frog.png,3,unstructured,c,NO,600,1,,0.575661066
Exp_EEG5.txt,5,6,124,74,kocht,deken,voor,hond,dog.png,9,structured,uc,VOP,840,1,,0.813333333
Exp_EEG5.txt,5,6,125,169,salade,kassa,amfibie,baard,beard.png,7,unstructured,uc,NO,700,1,,0.643778877
Exp_EEG5.txt,5,6,126,110,arbeiders,zaten,in,zon,sun.png,9,structured,uc,SVP,650,1,,0.600557833
Exp_EEG5.txt,5,6,127,135,draad,kleermaker,vingerhoed,naald,needle.png,3,unstructured,c,NO,730,1,,0.666666667
Exp_EEG5.txt,5,6,128,51,eend,zwemt,in,water,water.png,1,structured,c,SVP,740,1,,0.693333333
Exp_EEG5.txt,5,6,129,99,dier,beweegt,met,staart,tail.png,9,structured,uc,SVP,620,1,,0.515675387
Exp_EEG5.txt,5,6,130,7,leerling,bladerde,door,boek,book.png,1,structured,c,SVP,600,1,,0.559079045
Exp_EEG5.txt,5,6,131,127,gazon,weide,maaier,gras,grass.png,3,unstructured,c,NO,520,1,,0.446820721
Exp_EEG5.txt,5,6,132,161,larve,rups,cocon,vlinder,butterfly.png,3,unstructured,c,NO,670,1,,0.593433279
Exp_EEG5.txt,5,7,133,38,telde,stukjes,van,puzzel,puzzle.png,1,structured,c,VOP,470,1,,0.466666667
Exp_EEG5.txt,5,7,134,80,raakte,oog,met,kurk,cork02.png,9,structured,uc,VOP,780,1,,0.751861711
Exp_EEG5.txt,5,7,135,94,haatte,kleur,van,raam,window01.png,9,structured,uc,VOP,680,1,,0.613333333
Exp_EEG5.txt,5,7,136,64,vrienden,gingen,naar,bos,forest.png,9,structured,uc,SVP,670,1,,0.615587647
Exp_EEG5.txt,5,7,137,46,bewaart,lippenstift,in,tas,tas.png,1,structured,c,VOP,650,1,,0.626666667
Exp_EEG5.txt,5,7,138,4,veegt,vloer,met,bezem,broom01.png,1,structured,c,VOP,640,1,,0.613333333
Exp_EEG5.txt,5,7,139,150,hagedis,reptiel,vergif,slang ,snake.png,3,unstructured,c,NO,769,1,,0.6795725
Exp_EEG5.txt,5,7,140,132,kleding,vakantie,bagage,koffer,suitcase.png,3,unstructured,c,NO,660,1,,0.64
Exp_EEG5.txt,5,7,141,6,hakte,hout,met,bijl,axe.png,1,structured,c,VOP,420,1,,0.375981796
Exp_EEG5.txt,5,7,142,98,vulde,kom,met,slagroom,slagroom.png,9,structured,uc,VOP,660,1,,0.583494882
Exp_EEG5.txt,5,7,143,86,beschadigde,voet,van,microscoop,microscope.png,9,structured,uc,VOP,0,0,omission,1.662955175
Exp_EEG5.txt,5,7,144,41,man,knipte,met,schaar,scissors08.png,1,structured,c,SVP,1190,1,,1.158076713
Exp_EEG5.txt,5,7,145,19,kocht,halsband,voor,hond,dog.png,1,structured,c,VOP,660,1,,0.64
Exp_EEG5.txt,5,7,146,131,kalf,boer,rundvlees,koe,cow.png,3,unstructured,c,NO,660,1,,0.624248921
Exp_EEG5.txt,5,7,147,108,peuter,proefde,van,wortel,carrot02.png,9,structured,uc,SVP,880,1,,0.846748559
Exp_EEG5.txt,5,7,148,211,badge,komkommer,weide,trap,stairs.png,7,unstructured,uc,NO,660,1,,0.575959383
Exp_EEG5.txt,5,7,149,13,vreemdeling,klopt,op,deur,deur.png,1,structured,c,SVP,640,1,,0.60610138
Exp_EEG5.txt,5,7,150,62,huisgenoot,struikelde,over,boek,book.png,9,structured,uc,SVP,620,1,,0.6
Exp_EEG5.txt,5,7,151,28,kreeg,tand,door,lip,lip.png,1,structured,c,VOP,460,1,,0.402642896
Exp_EEG5.txt,5,7,152,182,omelet,handrem,sonate,gras,grass.png,7,unstructured,uc,NO,660,1,,0.54393351
Exp_EEG5.txt,5,7,153,208,kin,vee,holster,taart,cake.png,7,unstructured,uc,NO,1200,1,,1.2
Exp_EEG5.txt,5,7,154,18,visser,trekt,aan,hengel,fishingrod.png,1,structured,c,SVP,669,1,,0.626666667
Exp_EEG5.txt,5,8,155,134,beltoon,tekstbericht,batterij,mobieltje,mobile.png,3,unstructured,c,NO,710,1,,0.659968546
Exp_EEG5.txt,5,8,156,154,vloer,decoratie,franjes,tapijt,carpet.png,3,unstructured,c,NO,700,1,,0.658849876
Exp_EEG5.txt,5,8,157,174,straat,handpalm,reptiel,broek,pants2.png,7,unstructured,uc,NO,680,1,,0.65044284
Exp_EEG5.txt,5,8,158,100,ontmoetten,kennissen,op,strand,beach.png,9,structured,uc,VOP,720,1,,0.585378757
Exp_EEG5.txt,5,8,159,136,inktvis,weekdier,tentakel,octopus,octopus.png,3,unstructured,c,NO,2580,0,hesitated,2.580402231
Exp_EEG5.txt,5,8,160,50,zet,bloemen,in,vaas,vase01.png,1,structured,c,VOP,540,0,hesitated,0.932011731
Exp_EEG5.txt,5,8,161,97,concierge,keek,naar,schoolbord,schoolbord.png,9,structured,uc,SVP,961,1,,0.837817988
Exp_EEG5.txt,5,8,162,168,invasie,chocolade,kampioen,auto,car.png,7,unstructured,uc,NO,590,1,,0.573333333
Exp_EEG5.txt,5,8,163,201,snelweg,lontje,groente,schilderij,schilderij.png,7,unstructured,uc,NO,890,1,,0.773766243
Exp_EEG5.txt,5,8,164,183,kaas,geld,patrouille,horloge,watch.png,7,unstructured,uc,NO,690,1,,0.64
Exp_EEG5.txt,5,8,165,102,klanten,klaagden,over,tent,tent.png,9,structured,uc,SVP,620,1,,0.6
Exp_EEG5.txt,5,8,166,31,analyseert,bloedcellen,onder,microscoop,microscope.png,1,structured,c,VOP,1250,0,telescoop,1.253333333
Exp_EEG5.txt,5,8,167,37,meisjes,spelen,met,pop,doll.png,1,structured,c,SVP,729,1,,0.72
Exp_EEG5.txt,5,8,168,95,bewaarde,bonnetje,van,ring,ring01.png,9,structured,uc,VOP,670,1,,0.653333333
Exp_EEG5.txt,5,8,169,9,padvinder,liep,door,bos,forest.png,1,structured,c,SVP,590,1,,0.56
Exp_EEG5.txt,5,8,170,143,pen,slijper,gum,potlood,pencil01.png,3,unstructured,c,NO,629,1,,0.6
Exp_EEG5.txt,5,8,171,17,reed,scooter,zonder,helm,helmet.png,1,structured,c,VOP,620,1,,0.569671287
Exp_EEG5.txt,5,8,172,1,jongens,spelen,met,bal,ball02.png,1,structured,c,SVP,790,1,,0.713482247
Exp_EEG5.txt,5,8,173,153,oven,bloem,glazuur,taart,cake.png,3,unstructured,c,NO,690,1,,0.666666667
Exp_EEG5.txt,5,8,174,165,dokter,verpleegster,ambulance,ziekenhuis,ziekenhuis.png,3,unstructured,c,NO,640,1,,0.613333333
Exp_EEG5.txt,5,8,175,148,aansteker,pijp,asbak,sigaret,cigarrette.png,3,unstructured,c,NO,630,1,,0.613333333
Exp_EEG5.txt,5,8,176,23,hamster,breekt,uit,kooi,cage.png,1,structured,c,SVP,630,1,,0.6
Exp_EEG5.txt,5,9,177,157,groente,knoflook,sjalot,ui,onion.png,3,unstructured,c,NO,570,1,,0.56
Exp_EEG5.txt,5,9,178,159,strijkstok,kin,snaar,viool,violin.png,3,unstructured,c,NO,741,1,,0.683340249
Exp_EEG5.txt,5,9,179,191,gangpad,zoomlens,bladmuziek,octopus,octopus.png,7,unstructured,uc,NO,821,1,,0.796372741
Exp_EEG5.txt,5,9,180,52,plakt,pleister,op,wond,wound.png,1,structured,c,VOP,410,1,,0.368696173
Exp_EEG5.txt,5,9,181,73,man,zat,bij,hengel,fishingrod.png,9,structured,uc,SVP,609,1,,0.586666667
Exp_EEG5.txt,5,9,182,69,dolfijn,luisterde,naar,fluitje,whistle.png,9,structured,uc,SVP,670,1,,0.60986913
Exp_EEG5.txt,5,9,183,146,museum,penseel,landschap,schilderij,schilderij.png,3,unstructured,c,NO,500,1,,0.389455772
Exp_EEG5.txt,5,9,184,190,bloem,rundvlees,tekstbericht,naald,needle.png,7,unstructured,uc,NO,780,1,,0.693333333
Exp_EEG5.txt,5,9,185,192,warmte,asbak,pedaal,olifant,elephant.png,7,unstructured,uc,NO,659,1,,0.64
Exp_EEG5.txt,5,9,186,105,vergat,sleutels,in,vaas,vase01.png,9,structured,uc,VOP,640,1,,0.585378757
Exp_EEG5.txt,5,9,187,218,buffel,koptelefoon,filmfestival,wc,wc2.png,7,unstructured,uc,NO,710,1,,0.693333333
Exp_EEG5.txt,5,9,188,34,vogels,broeden,in,nest,nest.png,1,structured,c,SVP,570,1,,0.52
Exp_EEG5.txt,5,9,189,70,vond,pluisje,in,glas,glass.png,9,structured,uc,VOP,710,1,,0.589146507
Exp_EEG5.txt,5,9,190,160,piloot,helikopter,stewardess,vliegtuig,plane.png,3,unstructured,c,NO,1210,1,,1.101560468
Exp_EEG5.txt,5,9,191,32,kat,jaagt,op,muis,mouse.png,1,structured,c,SVP,460,1,,0.426666667
Exp_EEG5.txt,5,9,192,133,prins,hertog,troon,koning,king.png,3,unstructured,c,NO,690,1,,0.666666667
Exp_EEG5.txt,5,9,193,12,zwerver,leeft,onder,brug,bridge.png,1,structured,c,SVP,450,1,,0.413333333
Exp_EEG5.txt,5,9,194,112,heelal,ufo,invasie,alien,alien.png,3,unstructured,c,NO,840,1,,0.826666667
Exp_EEG5.txt,5,9,195,65,onderzoeker,gooide,met,bril,glasses01b.png,9,structured,uc,SVP,620,1,,0.613333333
Exp_EEG5.txt,5,9,196,11,strooit,hagelslag,op,brood,brood.png,1,structured,c,VOP,680,1,,0.6577787
Exp_EEG5.txt,5,9,197,29,astronaut,landde,op,maan,moon.png,1,structured,c,SVP,610,1,,0.56
Exp_EEG5.txt,5,9,198,126,handrem,pedaal,zadel,fiets,bike.png,3,unstructured,c,NO,630,1,,0.579727132
Exp_EEG5.txt,5,10,199,129,cadeau,elfen,rendier,kerstman,santa.png,3,unstructured,c,NO,320,1,,0.302454632
Exp_EEG5.txt,5,10,200,2,kind,slaapt,in,bed,bed.png,1,structured,c,SVP,620,1,,0.6
Exp_EEG5.txt,5,10,201,56,vader,arriveerde,met,bal,ball02.png,9,structured,uc,SVP,710,1,,0.693333333
Exp_EEG5.txt,5,10,202,172,zolder,ontstopper,klok,bioscoop,bioscoop.png,7,unstructured,uc,NO,801,1,,0.786666667
Exp_EEG5.txt,5,10,203,109,scheurde,verpakking,van,zeep,soap03b.png,9,structured,uc,VOP,630,1,,0.589146507
Exp_EEG5.txt,5,10,204,75,vrouw,koos,voor,ijsje,ijsje.png,9,structured,uc,SVP,600,1,,0.586666667
Exp_EEG5.txt,5,10,205,119,benen,achterzak,gulp,broek,pants2.png,3,unstructured,c,NO,650,1,,0.628707879
Exp_EEG5.txt,5,10,206,141,gieter,kunstmest,grond,plantje,plant02b.png,3,unstructured,c,NO,740,1,,0.72
Exp_EEG5.txt,5,10,207,121,zoomlens,foto,statief,camera,camera.png,3,unstructured,c,NO,880,1,,0.853333333
Exp_EEG5.txt,5,10,208,77,opa,ging,naar,kerk,church.png,9,structured,uc,SVP,770,1,,0.76
Exp_EEG5.txt,5,10,209,145,herder,kudde,wol,schaap,sheep.png,3,unstructured,c,NO,560,1,,0.52089018
Exp_EEG5.txt,5,10,210,213,nectar,snor,rodeo,vinger,finger.png,7,unstructured,uc,NO,650,1,,0.589146507
Exp_EEG5.txt,5,10,211,123,toetsenbord,programmeur,software,computer,computer.png,3,unstructured,c,NO,580,1,,0.546666667
Exp_EEG5.txt,5,10,212,21,hangt,jas,aan,kapstok,coatrack.png,1,structured,c,VOP,720,1,,0.706666667
Exp_EEG5.txt,5,10,213,151,rodeo,horens,vee,stier,bull.png,3,unstructured,c,NO,700,1,,0.655082127
Exp_EEG5.txt,5,10,214,171,winkelwagen,zadel,snaar,bijen,bijen.png,7,unstructured,uc,NO,720,1,,0.684337199
Exp_EEG5.txt,5,10,215,49,zag,serie,op,TV,television.png,1,structured,c,VOP,561,1,,0.532630261
Exp_EEG5.txt,5,10,216,106,stelletje,staarde,naar,water,water.png,9,structured,uc,SVP,680,1,,0.653333333
Exp_EEG5.txt,5,10,217,68,moeder,liep,naar,deur,deur.png,9,structured,uc,SVP,620,1,,0.613333333
Exp_EEG5.txt,5,10,218,180,maaier,graf,barak,ei,egg.png,7,unstructured,uc,NO,590,1,,0.56
Exp_EEG5.txt,5,10,219,140,schietschijf,kogel,holster,pistool,gun.png,3,unstructured,c,NO,500,1,,0.48
Exp_EEG5.txt,5,10,220,173,vijver,piloot,franjes,boterham,boterham.png,7,unstructured,uc,NO,1010,1,,0.989818804
Exp_EEG6.txt,6,1,1,36,boogschieter,schoot,met,pijl,arrow02.png,1,structured,c,SVP,700,1,,0.68
Exp_EEG6.txt,6,1,2,159,strijkstok,kin,snaar,viool,violin.png,3,unstructured,c,NO,1060,1,,1.033523779
Exp_EEG6.txt,6,1,3,89,vogels,vlogen,over,nest,nest.png,9,structured,uc,SVP,1230,1,,1.2
Exp_EEG6.txt,6,1,4,52,plakt,pleister,op,wond,wound.png,1,structured,c,VOP,690,1,,0.591030381
Exp_EEG6.txt,6,1,5,98,vulde,kom,met,slagroom,slagroom.png,9,structured,uc,VOP,960,1,,0.847237362
Exp_EEG6.txt,6,1,6,104,vroeg,prijs,van,TV,television.png,9,structured,uc,VOP,910,1,,0.87361161
Exp_EEG6.txt,6,1,7,181,leuning,slurf,vlam,fiets,bike.png,7,unstructured,uc,NO,760,1,,0.672037
Exp_EEG6.txt,6,1,8,60,bestelde,exemplaar,van ,bijbel,bible.png,9,structured,uc,VOP,810,1,,0.74550812
Exp_EEG6.txt,6,1,9,47,kampeerders,sliepen,in,tent,tent.png,1,structured,c,SVP,840,1,,0.802024365
Exp_EEG6.txt,6,1,10,172,zolder,ontstopper,klok,bioscoop,bioscoop.png,7,unstructured,uc,NO,819,1,,0.76
Exp_EEG6.txt,6,1,11,148,aansteker,pijp,asbak,sigaret,cigarrette.png,3,unstructured,c,NO,640,1,,0.594776846
Exp_EEG6.txt,6,1,12,163,wastafel,toiletpapier,ontstopper,wc,wc2.png,3,unstructured,c,NO,660,1,,0.630591753
Exp_EEG6.txt,6,1,13,45,zoeken,schelpen,op,strand,beach.png,1,structured,c,VOP,709,1,,0.442204268
Exp_EEG6.txt,6,1,14,210,vergif,cocon,leger,tomaat,tomato01.png,7,unstructured,uc,NO,700,1,,0.664501501
Exp_EEG6.txt,6,1,15,29,astronaut,landde,op,maan,moon.png,1,structured,c,SVP,850,1,,0.826666667
Exp_EEG6.txt,6,1,16,121,zoomlens,foto,statief,camera,camera.png,3,unstructured,c,NO,620,1,,0.581611007
Exp_EEG6.txt,6,1,17,71,zag,reclame,over,hamer,hammer02b.png,9,structured,uc,VOP,1020,1,,1
Exp_EEG6.txt,6,1,18,129,cadeau,elfen,rendier,kerstman,santa.png,3,unstructured,c,NO,1470,1,,1.418051444
Exp_EEG6.txt,6,1,19,97,concierge,keek,naar,schoolbord,schoolbord.png,9,structured,uc,SVP,980,1,,0.854772861
Exp_EEG6.txt,6,1,20,83,had,pijn,aan,lip,lip.png,9,structured,uc,VOP,1230,1,,1.197638085
Exp_EEG6.txt,6,1,21,219,gazon,krater,statief,woestijn,desert.png,7,unstructured,uc,NO,0,0,,0.389455772
Exp_EEG6.txt,6,1,22,109,scheurde,verpakking,van,zeep,soap03b.png,9,structured,uc,VOP,899,1,,0.834050238
Exp_EEG6.txt,6,2,23,87,vlek,lijkt,op,muis,mouse.png,9,structured,uc,SVP,740,1,,0.72
Exp_EEG6.txt,6,2,24,7,leerling,bladerde,door,boek,book.png,1,structured,c,SVP,1469,0,"schrift'. It's related to book, but I would not count it as correct",1.389793321
Exp_EEG6.txt,6,2,25,37,meisjes,spelen,met,pop,doll.png,1,structured,c,SVP,830,1,,0.809559865
Exp_EEG6.txt,6,2,26,105,vergat,sleutels,in,vaas,vase01.png,9,structured,uc,VOP,880,1,,0.796372741
Exp_EEG6.txt,6,2,27,53,konijn,knaagt,op,wortel,carrot02.png,1,structured,c,SVP,659,1,,0.62794834
Exp_EEG6.txt,6,2,28,82,krabde,neus,met,lepel,spoon02b.png,9,structured,uc,VOP,730,1,,0.687107999
Exp_EEG6.txt,6,2,29,46,bewaart,lippenstift,in,tas,tas.png,1,structured,c,VOP,980,1,,0.983721297
Exp_EEG6.txt,6,2,30,18,visser,trekt,aan,hengel,fishingrod.png,1,structured,c,SVP,599,1,,0.573333333
Exp_EEG6.txt,6,2,31,125,dooier,kip,omelet,ei,egg.png,3,unstructured,c,NO,590,1,,0.569855488
Exp_EEG6.txt,6,2,32,167,aansteker,elfen,dierentuin,alien,alien.png,7,unstructured,uc,NO,950,1,,0.907521357
Exp_EEG6.txt,6,2,33,8,blad,valt,van,boom,tree.png,1,structured,c,SVP,610,1,,0.582661251
Exp_EEG6.txt,6,2,34,107,raadpleegde,buurvrouw,over,wond,wound.png,9,structured,uc,VOP,890,1,,0.792604991
Exp_EEG6.txt,6,2,35,74,kocht,deken,voor,hond,dog.png,9,structured,uc,VOP,740,1,,0.72
Exp_EEG6.txt,6,2,36,56,vader,arriveerde,met,bal,ball02.png,9,structured,uc,SVP,1000,1,,0.913172982
Exp_EEG6.txt,6,2,37,202,wol,larve,pink,schoen,shoe.png,7,unstructured,uc,NO,920,1,,0.698411248
Exp_EEG6.txt,6,2,38,61,greep,handvat,van,bijl,axe.png,9,structured,uc,VOP,1330,1,,1.32
Exp_EEG6.txt,6,2,39,155,salade,komkommer,sla,tomaat,tomato01.png,3,unstructured,c,NO,550,1,,0.504372138
Exp_EEG6.txt,6,2,40,40,deed,aanzoek,met,ring,ring01.png,1,structured,c,VOP,670,1,,0.579727132
Exp_EEG6.txt,6,2,41,23,hamster,breekt,uit,kooi,cage.png,1,structured,c,SVP,910,1,,0.860424486
Exp_EEG6.txt,6,2,42,212,kleermaker,landschap,gum,ui,onion.png,7,unstructured,uc,NO,820,1,,0.786666667
Exp_EEG6.txt,6,2,43,158,handpalm,duim,pink,vinger,finger.png,3,unstructured,c,NO,901,1,,0.88
Exp_EEG6.txt,6,2,44,5,leest,evangelie,uit,bijbel,bible.png,1,structured,c,VOP,760,1,,0.760579119
Exp_EEG6.txt,6,3,45,3,bereikten,top,van,berg,berg.png,1,structured,c,VOP,619,1,,0.560888384
Exp_EEG6.txt,6,3,46,92,meisje,droomde,van,pop,doll.png,9,structured,uc,SVP,690,1,,0.666385376
Exp_EEG6.txt,6,3,47,186,sluier,bagage,druppels ,koe,cow.png,7,unstructured,uc,NO,850,1,,0.802024365
Exp_EEG6.txt,6,3,48,191,gangpad,zoomlens,bladmuziek,octopus,octopus.png,7,unstructured,uc,NO,859,1,,0.79395254
Exp_EEG6.txt,6,3,49,187,benzine,publiek,oven,koffer,suitcase.png,7,unstructured,uc,NO,910,1,,0.866076111
Exp_EEG6.txt,6,3,50,41,man,knipte,met,schaar,scissors08.png,1,structured,c,SVP,960,1,,0.739856495
Exp_EEG6.txt,6,3,51,176,beltoon,sla,achterzak,camera,camera.png,7,unstructured,uc,NO,849,1,,0.80767599
Exp_EEG6.txt,6,3,52,112,heelal,ufo,invasie,alien,alien.png,3,unstructured,c,NO,790,1,,0.770811723
Exp_EEG6.txt,6,3,53,80,raakte,oog,met,kurk,cork02.png,9,structured,uc,VOP,1160,1,,1.107212092
Exp_EEG6.txt,6,3,54,133,prins,hertog,troon,koning,king.png,3,unstructured,c,NO,889,1,,0.864192236
Exp_EEG6.txt,6,3,55,19,kocht,halsband,voor,hond,dog.png,1,structured,c,VOP,520,1,,0.504688177
Exp_EEG6.txt,6,3,56,88,jongen,sprong,over,muur,wall2.png,9,structured,uc,SVP,950,1,,0.933333333
Exp_EEG6.txt,6,3,57,17,reed,scooter,zonder,helm,helmet.png,1,structured,c,VOP,540,1,,0.520717506
Exp_EEG6.txt,6,3,58,141,gieter,kunstmest,grond,plantje,plant02b.png,3,unstructured,c,NO,939,1,,0.918489503
Exp_EEG6.txt,6,3,59,111,zomer,vrucht,beschuit,aardbei,strawberry.png,3,unstructured,c,NO,830,1,,0.810117609
Exp_EEG6.txt,6,3,60,178,schietschijf,wenkbrauw,honing,computer,computer.png,7,unstructured,uc,NO,1100,1,,1.056347471
Exp_EEG6.txt,6,3,61,34,vogels,broeden,in,nest,nest.png,1,structured,c,SVP,559,1,,0.533333333
Exp_EEG6.txt,6,3,62,153,oven,bloem,glazuur,taart,cake.png,3,unstructured,c,NO,830,1,,0.809559865
Exp_EEG6.txt,6,3,63,151,rodeo,horens,vee,stier,bull.png,3,unstructured,c,NO,1330,1,,1.113750559
Exp_EEG6.txt,6,3,64,24,las,artikel,in,krant,newspaper.png,1,structured,c,VOP,569,1,,0.5202615
Exp_EEG6.txt,6,3,65,179,troon,beschuit,helikopter,diepvries,freezer01.png,7,unstructured,uc,NO,1510,2,freezer,1.461541219
Exp_EEG6.txt,6,3,66,65,onderzoeker,gooide,met,bril,glasses01b.png,9,structured,uc,SVP,800,1,,0.747391995
Exp_EEG6.txt,6,4,67,175,software,vrucht,nek,bruid,bruid.png,7,unstructured,uc,NO,1250,1,,1.216476834
Exp_EEG6.txt,6,4,68,145,herder,kudde,wol,schaap,sheep.png,3,unstructured,c,NO,399,1,,0.367232923
Exp_EEG6.txt,6,4,69,195,toetsenbord,vakantie,horens,pistool,gun.png,7,unstructured,uc,NO,839,1,,0.815634062
Exp_EEG6.txt,6,4,70,81,vond,sok,in,laars,boot02b.png,9,structured,uc,VOP,1170,1,,1.146666667
Exp_EEG6.txt,6,4,71,213,nectar,snor,rodeo,vinger,finger.png,7,unstructured,uc,NO,820,1,,0.792604991
Exp_EEG6.txt,6,4,72,27,at,soep,met,lepel,spoon02b.png,1,structured,c,VOP,679,1,,0.640011128
Exp_EEG6.txt,6,4,73,154,vloer,decoratie,franjes,tapijt,carpet.png,3,unstructured,c,NO,1020,1,,0.967805353
Exp_EEG6.txt,6,4,74,49,zag,serie,op,TV,television.png,1,structured,c,VOP,1140,0,scherm,0.932011731
Exp_EEG6.txt,6,4,75,215,prins,apparaat,trofee,vliegtuig,plane.png,7,unstructured,uc,NO,809,1,,0.791195736
Exp_EEG6.txt,6,4,76,152,kassa,gangpad,winkelwagen,supermarkt,supermarket.png,3,unstructured,c,NO,950,1,,0.809559865
Exp_EEG6.txt,6,4,77,25,sloot,wijnfles,met,kurk,cork02.png,1,structured,c,VOP,780,1,,0.724785496
Exp_EEG6.txt,6,4,78,33,spiegel,hangt,aan,muur,wall2.png,1,structured,c,SVP,770,1,,0.743624245
Exp_EEG6.txt,6,4,79,85,vroegen,gastheer,om,mes,knife01.png,9,structured,uc,VOP,760,1,,0.734204871
Exp_EEG6.txt,6,4,80,6,hakte,hout,met,bijl,axe.png,1,structured,c,VOP,470,1,,0.440320393
Exp_EEG6.txt,6,4,81,144,ruimtestation,astronaut,lancering,raket,rocket.png,3,unstructured,c,NO,880,1,,0.818630843
Exp_EEG6.txt,6,4,82,149,winter,nek,wol,sjaal,scarf.png,3,unstructured,c,NO,739,1,,0.672037
Exp_EEG6.txt,6,4,83,69,dolfijn,luisterde,naar,fluitje,whistle.png,9,structured,uc,SVP,1020,1,,0.886798734
Exp_EEG6.txt,6,4,84,192,warmte,asbak,pedaal,olifant,elephant.png,7,unstructured,uc,NO,750,1,,0.733333333
Exp_EEG6.txt,6,4,85,136,inktvis,weekdier,tentakel,octopus,octopus.png,3,unstructured,c,NO,489,1,,0.469146205
Exp_EEG6.txt,6,4,86,130,waterlelie,vijver,amfibie,kikker,frog.png,3,unstructured,c,NO,600,1,,0.559724609
Exp_EEG6.txt,6,4,87,59,sloeg,kakkerlak,met,bezem,broom01.png,9,structured,uc,VOP,959,1,,0.946666667
Exp_EEG6.txt,6,4,88,177,pijp,lauwerkrans,farao,clown,clown.png,7,unstructured,uc,NO,1090,1,,1.066666667
Exp_EEG6.txt,6,5,89,140,schietschijf,kogel,holster,pistool,gun.png,3,unstructured,c,NO,520,2,geweer,0.425249394
Exp_EEG6.txt,6,5,90,220,tijd,ambassadeur,winter,ziekenhuis,ziekenhuis.png,7,unstructured,uc,NO,950,1,,0.904542681
Exp_EEG6.txt,6,5,91,67,opa,las,over,brug,bridge.png,9,structured,uc,SVP,820,1,,0.8
Exp_EEG6.txt,6,5,92,173,vijver,piloot,franjes,boterham,boterham.png,7,unstructured,uc,NO,970,1,,0.901869733
Exp_EEG6.txt,6,5,93,70,vond,pluisje,in,glas,glass.png,9,structured,uc,VOP,800,1,,0.693822806
Exp_EEG6.txt,6,5,94,100,ontmoetten,kennissen,op,strand,beach.png,9,structured,uc,VOP,920,1,,0.730437121
Exp_EEG6.txt,6,5,95,108,peuter,proefde,van,wortel,carrot02.png,9,structured,uc,SVP,760,1,,0.700295123
Exp_EEG6.txt,6,5,96,208,kin,vee,holster,taart,cake.png,7,unstructured,uc,NO,770,1,,0.745440305
Exp_EEG6.txt,6,5,97,31,analyseert,bloedcellen,onder,microscoop,microscope.png,1,structured,c,VOP,420,1,,0.394299184
Exp_EEG6.txt,6,5,98,116,stuifmeel,honing,nectar,bijen,bijen.png,3,unstructured,c,NO,730,1,,0.602333631
Exp_EEG6.txt,6,5,99,35,kok,roert,in,pan,pan.png,1,structured,c,SVP,670,1,,0.640011128
Exp_EEG6.txt,6,5,100,79,verborg,pen,onder,krant,newspaper.png,9,structured,uc,VOP,800,1,,0.754927494
Exp_EEG6.txt,6,5,101,124,koelkast,ijsblokje,apparaat,diepvries,freezer01.png,3,unstructured,c,NO,510,2,freezer,0.497794669
Exp_EEG6.txt,6,5,102,51,eend,zwemt,in,water,water.png,1,structured,c,SVP,1850,1,,1.745845669
Exp_EEG6.txt,6,5,103,10,opa,leest,met,bril,glasses01b.png,1,structured,c,SVP,520,1,,0.516911175
Exp_EEG6.txt,6,5,104,43,drinkt,chocomelk,met,slagroom,slagroom.png,1,structured,c,VOP,980,1,,0.837817988
Exp_EEG6.txt,6,5,105,127,gazon,weide,maaier,gras,grass.png,3,unstructured,c,NO,870,1,,0.743624245
Exp_EEG6.txt,6,5,106,185,vaasje,ballon,tsunami,kikker,frog.png,7,unstructured,uc,NO,820,1,,0.771882368
Exp_EEG6.txt,6,5,107,174,straat,handpalm,reptiel,broek,pants2.png,7,unstructured,uc,NO,760,1,,0.717249997
Exp_EEG6.txt,6,5,108,44,puppy,kwispelt,met,staart,tail.png,1,structured,c,SVP,510,1,,0.398875146
Exp_EEG6.txt,6,5,109,42,leraar,schreef,op,schoolbord,schoolbord.png,1,structured,c,SVP,550,1,,0.423365519
Exp_EEG6.txt,6,5,110,161,larve,rups,cocon,vlinder,butterfly.png,3,unstructured,c,NO,599,1,,0.586861423
Exp_EEG6.txt,6,6,111,164,kameel,cactus,oase,woestijn,desert.png,3,unstructured,c,NO,0,0,,0.421481644
Exp_EEG6.txt,6,6,112,123,toetsenbord,programmeur,software,computer,computer.png,3,unstructured,c,NO,540,1,,0.50871172
